Mar 13 2018 at 10:02:27
Frequency: 1.00Hz.
CO2
Zero:  Value:0.91  Date:May 19 2009 at 7:53:33 AM
Span:  Value:1.00  Date:May 19 2009 at 8:00:06 AM
H2O
Zero:  Value:0.77  Date:May 19 2009 at 7:54:01 AM
Span:  Value:1.01  Date:28 Jun 2004	 at 08:29:05	
Cloud and fog, low temps, REDO PHOTO
	Relative Time	Temperature	Pressure	Aux Input	CO2 Absorptance	CO2 mmol/m3	CO2 mg/m3	CO2 umol/mol	H2O Absorptance	H2O mmol/m3	H2O g/m3	H2O mmol/mol	H2O(°C)	Cooler Voltage
	0.86	22.86	65.89	0.00	0.0599	10.82	476.1	404.21	0.0564	454.6	8.184	16.98	8.56	1.44
	1.86	22.87	65.91	0.00	0.0598	10.83	476.3	404.26	0.0563	455.2	8.193	17.00	8.58	1.43
	2.86	22.87	65.91	0.00	0.0598	10.80	475.4	403.44	0.0564	459.2	8.265	17.15	8.71	1.43
	3.86	22.87	65.91	0.00	0.0597	10.81	475.7	403.69	0.0567	458.3	8.250	17.11	8.68	1.43
	4.86	22.87	65.88	0.00	0.0597	10.80	475.1	403.40	0.0569	461.0	8.298	17.22	8.77	1.43
	5.94	22.87	65.91	0.00	0.0597	10.78	474.5	402.73	0.0572	465.1	8.371	17.37	8.90	1.43
	6.86	22.88	65.91	0.00	0.0596	10.77	474.0	402.28	0.0577	467.1	8.409	17.44	8.97	1.44
	7.86	22.87	65.93	0.00	0.0596	10.77	473.8	401.98	0.0577	468.7	8.436	17.49	9.01	1.43
	8.86	22.87	65.88	0.00	0.0596	10.77	473.9	402.37	0.0576	468.2	8.428	17.49	9.00	1.43
	9.86	22.87	65.91	0.00	0.0595	10.73	471.9	400.51	0.0579	477.7	8.598	17.84	9.30	1.43
	10.86	22.91	65.91	0.00	0.0596	10.76	473.4	401.81	0.0581	472.1	8.498	17.63	9.12	1.43
	11.86	22.87	65.91	0.00	0.0595	10.76	473.3	401.65	0.0581	470.4	8.467	17.57	9.07	1.43
	12.86	22.87	65.89	0.00	0.0594	10.74	472.5	401.12	0.0584	477.5	8.594	17.84	9.29	1.44
	13.86	22.87	65.91	0.00	0.0594	10.73	472.3	400.80	0.0583	477.3	8.591	17.82	9.28	1.44
	14.86	22.87	65.91	0.00	0.0595	10.73	472.0	400.59	0.0583	479.9	8.639	17.92	9.37	1.43
	15.86	22.85	65.91	0.00	0.0594	10.73	471.9	400.48	0.0585	478.8	8.619	17.88	9.33	1.43
	16.84	22.87	65.91	0.00	0.0593	10.71	471.4	400.06	0.0589	483.2	8.698	18.04	9.47	1.43
	17.86	22.87	65.89	0.00	0.0593	10.71	471.3	400.14	0.0592	487.7	8.778	18.22	9.60	1.44
	18.86	22.89	65.91	0.00	0.0594	10.72	471.7	400.39	0.0590	484.5	8.721	18.09	9.51	1.44
	19.86	22.89	65.91	0.00	0.0594	10.72	471.5	400.18	0.0592	488.5	8.792	18.24	9.63	1.44
	20.86	22.87	65.91	0.00	0.0594	10.71	471.3	399.94	0.0594	488.3	8.790	18.24	9.62	1.43
	21.86	22.91	65.91	0.00	0.0593	10.70	470.9	399.68	0.0595	490.3	8.825	18.31	9.68	1.43
	22.86	22.91	65.90	0.00	0.0593	10.69	470.5	399.37	0.0598	492.3	8.861	18.39	9.75	1.43
	23.86	22.89	65.91	0.00	0.0593	10.69	470.5	399.31	0.0600	493.6	8.885	18.43	9.79	1.44
	24.86	22.89	65.86	0.00	0.0593	10.69	470.4	399.55	0.0599	495.0	8.910	18.50	9.83	1.43
	25.86	22.91	65.91	0.00	0.0592	10.68	469.8	398.72	0.0604	499.2	8.986	18.64	9.96	1.43
	26.86	22.89	65.93	0.00	0.0592	10.67	469.4	398.23	0.0605	501.8	9.032	18.73	10.03	1.44
	27.94	22.87	65.91	0.00	0.0591	10.67	469.3	398.28	0.0607	502.4	9.042	18.76	10.05	1.43
	28.86	22.91	65.91	0.00	0.0592	10.67	469.3	398.33	0.0607	504.3	9.078	18.83	10.11	1.43
	29.86	22.87	65.93	0.00	0.0591	10.65	468.7	397.64	0.0608	506.2	9.112	18.90	10.16	1.44
	30.86	22.89	65.91	0.00	0.0591	10.65	468.5	397.67	0.0609	507.9	9.142	18.97	10.21	1.44
	31.86	22.89	65.88	0.00	0.0591	10.65	468.8	398.05	0.0612	509.3	9.167	19.03	10.25	1.44
	32.86	22.89	65.88	0.00	0.0592	10.67	469.6	398.73	0.0610	508.0	9.143	18.98	10.21	1.43
	33.86	22.89	65.91	0.00	0.0591	10.66	469.2	398.20	0.0611	509.6	9.173	19.03	10.26	1.44
	34.86	22.91	65.91	0.00	0.0591	10.64	468.2	397.39	0.0615	514.2	9.255	19.20	10.40	1.44
	35.86	22.91	65.91	0.00	0.0591	10.66	468.9	397.96	0.0616	515.5	9.279	19.25	10.44	1.44
	36.86	22.91	65.91	0.00	0.0591	10.65	468.7	397.86	0.0616	515.3	9.275	19.24	10.43	1.44
	37.86	22.91	65.91	0.00	0.0591	10.64	468.3	397.50	0.0617	517.6	9.317	19.33	10.50	1.44
	38.84	22.91	65.91	0.00	0.0590	10.64	468.1	397.33	0.0620	518.8	9.339	19.38	10.53	1.44
	39.86	22.91	65.91	0.00	0.0590	10.63	467.8	397.05	0.0620	519.7	9.355	19.41	10.56	1.44
	40.86	22.91	65.91	0.00	0.0590	10.63	467.6	396.86	0.0623	522.2	9.400	19.50	10.63	1.44
	41.86	22.89	65.89	0.00	0.0590	10.63	467.9	397.23	0.0623	523.2	9.418	19.55	10.66	1.44
	42.86	22.89	65.91	0.00	0.0590	10.63	467.6	396.91	0.0625	524.8	9.446	19.60	10.70	1.44
	43.86	22.89	65.88	0.00	0.0590	10.63	467.6	397.06	0.0625	525.0	9.449	19.61	10.71	1.44
	44.86	22.91	65.89	0.00	0.0589	10.61	466.8	396.35	0.0626	529.4	9.529	19.78	10.83	1.44
	45.86	22.89	65.91	0.00	0.0589	10.62	467.2	396.51	0.0627	527.5	9.496	19.70	10.78	1.44
	46.86	22.89	65.88	0.00	0.0589	10.62	467.1	396.58	0.0628	529.5	9.532	19.78	10.84	1.44
	47.94	22.91	65.91	0.00	0.0590	10.61	466.9	396.30	0.0629	531.0	9.559	19.83	10.88	1.44
	48.86	22.91	65.91	0.00	0.0589	10.61	466.9	396.29	0.0632	533.1	9.597	19.91	10.94	1.44
	49.94	22.93	65.93	0.00	0.0590	10.61	467.0	396.26	0.0632	532.6	9.587	19.88	10.93	1.44
	50.86	22.91	65.91	0.00	0.0590	10.61	467.0	396.39	0.0632	534.0	9.613	19.94	10.97	1.44
	51.86	22.91	65.91	0.00	0.0590	10.61	467.0	396.35	0.0633	533.9	9.610	19.94	10.96	1.44
	52.86	22.93	65.91	0.00	0.0589	10.60	466.3	395.80	0.0634	537.7	9.679	20.08	11.07	1.44
	53.86	22.93	65.91	0.00	0.0588	10.60	466.3	395.83	0.0636	539.9	9.718	20.16	11.13	1.44
	54.86	22.91	65.91	0.00	0.0589	10.60	466.4	395.90	0.0636	538.0	9.685	20.09	11.08	1.44
	55.86	22.91	65.91	0.00	0.0589	10.60	466.3	395.81	0.0637	539.4	9.710	20.15	11.12	1.44
	56.86	22.91	65.91	0.00	0.0589	10.60	466.4	395.84	0.0639	540.5	9.729	20.18	11.15	1.44
	57.86	22.91	65.89	0.00	0.0589	10.59	466.0	395.68	0.0640	543.7	9.786	20.31	11.23	1.44
	58.86	22.93	65.91	0.00	0.0588	10.57	465.2	394.85	0.0641	544.1	9.793	20.32	11.25	1.44
	59.86	22.93	65.91	0.00	0.0587	10.58	465.5	395.10	0.0641	544.5	9.801	20.34	11.26	1.44
	60.84	22.93	65.91	0.00	0.0587	10.57	465.2	394.91	0.0643	547.4	9.853	20.44	11.34	1.44
	61.86	22.93	65.91	0.00	0.0588	10.58	465.5	395.15	0.0645	549.1	9.883	20.51	11.38	1.44
	62.86	22.93	65.91	0.00	0.0587	10.56	464.8	394.54	0.0645	549.5	9.891	20.52	11.40	1.44
	63.86	22.91	65.91	0.00	0.0587	10.57	464.9	394.60	0.0646	549.2	9.886	20.51	11.39	1.44
	64.86	22.91	65.89	0.00	0.0588	10.58	465.3	395.09	0.0646	550.5	9.909	20.57	11.42	1.44
	65.86	22.93	65.91	0.00	0.0588	10.57	465.3	394.95	0.0647	552.6	9.947	20.64	11.48	1.44
	66.86	22.93	65.91	0.00	0.0587	10.58	465.4	395.05	0.0647	551.0	9.919	20.58	11.44	1.44
	67.86	22.93	65.93	0.00	0.0587	10.57	464.9	394.49	0.0648	553.0	9.953	20.64	11.49	1.44
	68.86	22.93	65.91	0.00	0.0587	10.57	465.1	394.79	0.0650	554.3	9.977	20.70	11.53	1.44
	69.86	22.91	65.91	0.00	0.0587	10.56	464.6	394.34	0.0651	556.2	10.012	20.77	11.58	1.44
	70.86	22.93	65.91	0.00	0.0588	10.58	465.4	395.02	0.0649	554.8	9.987	20.72	11.54	1.44
	71.88	22.93	65.91	0.00	0.0587	10.58	465.3	394.96	0.0651	555.3	9.996	20.74	11.56	1.44
	72.86	22.93	65.91	0.00	0.0588	10.58	465.3	394.99	0.0652	556.6	10.019	20.79	11.59	1.44
	73.86	22.93	65.89	0.00	0.0587	10.57	464.9	394.73	0.0654	558.1	10.046	20.85	11.63	1.44
	74.86	22.92	65.89	0.00	0.0587	10.58	465.3	395.09	0.0653	558.2	10.048	20.85	11.63	1.44
	75.86	22.94	65.91	0.00	0.0587	10.56	464.8	394.58	0.0653	559.5	10.072	20.90	11.67	1.44
	76.86	22.94	65.91	0.00	0.0586	10.55	464.3	394.09	0.0654	561.2	10.101	20.96	11.72	1.44
	77.86	22.96	65.91	0.00	0.0587	10.56	464.6	394.38	0.0654	561.3	10.103	20.97	11.72	1.44
	78.86	22.94	65.89	0.00	0.0586	10.54	463.9	393.88	0.0658	563.3	10.139	21.05	11.77	1.44
	79.86	22.94	65.91	0.00	0.0586	10.56	464.5	394.28	0.0658	563.2	10.137	21.03	11.77	1.44
	80.86	22.94	65.91	0.00	0.0587	10.55	464.0	393.90	0.0658	564.8	10.166	21.10	11.81	1.44
	81.86	22.93	65.91	0.00	0.0587	10.56	464.5	394.32	0.0658	564.3	10.157	21.08	11.80	1.44
	82.94	22.93	65.91	0.00	0.0586	10.55	464.0	393.88	0.0659	566.7	10.200	21.16	11.86	1.44
	83.86	22.94	65.91	0.00	0.0586	10.53	463.3	393.27	0.0660	569.8	10.257	21.28	11.95	1.44
	84.86	22.94	65.91	0.00	0.0586	10.54	463.9	393.83	0.0660	568.4	10.232	21.23	11.91	1.44
	85.86	22.94	65.91	0.00	0.0586	10.53	463.4	393.34	0.0661	569.3	10.247	21.26	11.93	1.44
	86.86	22.94	65.88	0.00	0.0587	10.56	464.4	394.41	0.0661	568.6	10.234	21.24	11.91	1.44
	87.86	22.94	65.91	0.00	0.0586	10.53	463.3	393.28	0.0663	571.3	10.283	21.34	11.99	1.44
	88.86	22.96	65.91	0.00	0.0586	10.53	463.5	393.49	0.0662	570.9	10.276	21.32	11.98	1.44
	89.86	22.92	65.93	0.00	0.0585	10.53	463.5	393.32	0.0664	572.5	10.305	21.38	12.02	1.44
	90.86	22.94	65.91	0.00	0.0586	10.54	463.7	393.59	0.0664	572.7	10.308	21.39	12.02	1.44
	91.86	22.94	65.91	0.00	0.0586	10.53	463.4	393.35	0.0665	572.7	10.308	21.39	12.02	1.44
	92.86	22.94	65.91	0.00	0.0586	10.53	463.5	393.42	0.0665	573.9	10.330	21.44	12.06	1.44
	93.94	22.94	65.91	0.00	0.0585	10.52	463.1	393.11	0.0666	576.6	10.380	21.54	12.13	1.44
	94.86	22.94	65.91	0.00	0.0586	10.53	463.3	393.27	0.0667	575.9	10.366	21.51	12.11	1.44
	95.86	22.92	65.89	0.00	0.0586	10.52	462.8	392.97	0.0668	578.7	10.417	21.62	12.18	1.44
	96.86	22.92	65.91	0.00	0.0586	10.52	463.0	393.04	0.0668	577.7	10.398	21.58	12.15	1.44
	97.86	22.96	65.91	0.00	0.0585	10.51	462.5	392.59	0.0669	579.4	10.429	21.64	12.20	1.44
	98.86	22.96	65.89	0.00	0.0586	10.53	463.2	393.38	0.0668	577.9	10.401	21.59	12.16	1.44
	99.86	22.96	65.91	0.00	0.0585	10.52	462.7	392.82	0.0669	579.9	10.438	21.66	12.21	1.44
	100.86	22.96	65.91	0.00	0.0585	10.51	462.4	392.54	0.0671	581.2	10.462	21.71	12.25	1.44
	101.86	22.98	65.88	0.00	0.0585	10.51	462.3	392.66	0.0671	581.2	10.462	21.72	12.25	1.44
	102.86	22.96	65.91	0.00	0.0586	10.52	463.0	393.02	0.0672	582.2	10.480	21.75	12.28	1.44
	103.86	22.96	65.91	0.00	0.0585	10.52	462.9	392.98	0.0672	582.0	10.476	21.74	12.27	1.44
	104.94	22.96	65.91	0.00	0.0584	10.51	462.4	392.54	0.0673	583.5	10.503	21.79	12.31	1.44
	105.86	22.94	65.89	0.00	0.0585	10.51	462.5	392.77	0.0674	584.7	10.525	21.85	12.34	1.44
	106.86	22.96	65.91	0.00	0.0585	10.51	462.6	392.72	0.0674	585.8	10.545	21.88	12.37	1.44
	107.86	22.96	65.91	0.00	0.0585	10.51	462.6	392.75	0.0674	585.3	10.536	21.86	12.36	1.44
	108.86	22.94	65.91	0.00	0.0585	10.51	462.6	392.70	0.0675	586.1	10.551	21.89	12.38	1.44
	109.86	22.98	65.91	0.00	0.0584	10.51	462.3	392.51	0.0676	586.3	10.554	21.90	12.38	1.44
	110.86	22.96	65.91	0.00	0.0585	10.50	462.2	392.34	0.0676	587.8	10.580	21.96	12.42	1.44
	111.86	22.94	65.91	0.00	0.0584	10.50	462.0	392.22	0.0677	588.2	10.588	21.97	12.43	1.44
	112.86	22.98	65.91	0.00	0.0585	10.50	461.9	392.12	0.0677	590.1	10.621	22.04	12.48	1.44
	113.86	23.00	65.90	0.00	0.0584	10.50	462.0	392.27	0.0678	589.7	10.615	22.03	12.47	1.44
	114.86	22.98	65.91	0.00	0.0584	10.50	461.9	392.10	0.0678	589.0	10.602	22.00	12.45	1.44
	115.94	22.98	65.91	0.00	0.0584	10.51	462.4	392.55	0.0678	589.2	10.605	22.01	12.46	1.44
	116.86	23.00	65.91	0.00	0.0584	10.50	462.1	392.33	0.0678	590.5	10.628	22.06	12.49	1.45
	117.86	22.98	65.89	0.00	0.0585	10.50	462.0	392.40	0.0678	591.8	10.652	22.11	12.52	1.44
	118.86	22.98	65.91	0.00	0.0584	10.51	462.3	392.46	0.0679	591.3	10.644	22.09	12.51	1.44
	119.86	22.98	65.89	0.00	0.0584	10.50	461.8	392.19	0.0680	592.6	10.667	22.14	12.54	1.44
	120.86	22.96	65.89	0.00	0.0584	10.50	461.8	392.21	0.0680	592.1	10.659	22.13	12.53	1.44
	121.86	22.98	65.91	0.00	0.0585	10.50	461.9	392.13	0.0681	593.6	10.685	22.17	12.57	1.45
	122.86	22.98	65.89	0.00	0.0584	10.50	461.9	392.26	0.0681	594.2	10.696	22.20	12.59	1.45
	123.86	22.96	65.91	0.00	0.0584	10.50	461.9	392.14	0.0681	594.3	10.698	22.20	12.59	1.44
	124.94	22.98	65.91	0.00	0.0584	10.48	461.2	391.55	0.0684	596.4	10.735	22.28	12.64	1.45
	125.86	22.98	65.91	0.00	0.0584	10.51	462.3	392.46	0.0683	595.6	10.720	22.25	12.62	1.45
	126.94	22.96	65.91	0.00	0.0584	10.49	461.4	391.68	0.0684	597.6	10.757	22.32	12.67	1.45
