Mar 15 2018 at 9:39:51
Frequency: 1.00Hz.
CO2
Zero:  Value:0.91  Date:May 19 2009 at 7:53:33 AM
Span:  Value:1.00  Date:May 19 2009 at 8:00:06 AM
H2O
Zero:  Value:0.77  Date:May 19 2009 at 7:54:01 AM
Span:  Value:1.01  Date:28 Jun 2004	 at 08:29:05	
Light fog and low PAR, dry
	Relative Time	Temperature	Pressure	Aux Input	CO2 Absorptance	CO2 mmol/m3	CO2 mg/m3	CO2 umol/mol	H2O Absorptance	H2O mmol/m3	H2O g/m3	H2O mmol/mol	H2O(°C)	Cooler Voltage
	0.48	22.77	67.50	0.00	0.0617	11.20	492.6	408.06	0.0641	537.8	9.681	19.60	11.07	1.48
	1.50	22.77	67.52	0.00	0.0616	11.17	491.3	406.83	0.0643	540.8	9.735	19.71	11.15	1.48
	2.48	22.77	67.50	0.00	0.0617	11.17	491.5	407.21	0.0642	540.8	9.735	19.71	11.15	1.48
	3.50	22.75	67.50	0.00	0.0616	11.16	491.0	406.73	0.0647	542.0	9.756	19.75	11.18	1.48
	4.48	22.75	67.50	0.00	0.0616	11.17	491.7	407.28	0.0651	543.0	9.774	19.79	11.21	1.48
	5.50	22.77	67.52	0.00	0.0617	11.17	491.7	407.16	0.0645	543.1	9.775	19.79	11.21	1.48
	6.50	22.77	67.50	0.00	0.0616	11.16	491.1	406.84	0.0647	544.4	9.799	19.84	11.25	1.48
	7.48	22.75	67.50	0.00	0.0616	11.16	491.1	406.81	0.0643	544.1	9.794	19.83	11.24	1.48
	8.50	22.77	67.50	0.00	0.0615	11.16	490.8	406.61	0.0646	547.6	9.856	19.96	11.34	1.48
	9.48	22.77	67.50	0.00	0.0617	11.18	491.7	407.34	0.0643	542.3	9.762	19.77	11.19	1.48
	10.50	22.77	67.50	0.00	0.0617	11.22	493.9	409.13	0.0644	543.3	9.779	19.80	11.22	1.48
	11.48	22.75	67.50	0.00	0.0615	11.15	490.4	406.26	0.0646	546.4	9.835	19.91	11.30	1.48
	12.50	22.79	67.50	0.00	0.0616	11.15	490.6	406.47	0.0648	547.7	9.859	19.97	11.34	1.48
	13.48	22.77	67.50	0.00	0.0614	11.12	489.2	405.24	0.0649	548.8	9.878	20.00	11.37	1.48
	14.48	22.77	67.52	0.00	0.0616	11.15	490.6	406.23	0.0649	548.0	9.864	19.97	11.35	1.48
	15.48	22.77	67.52	0.00	0.0616	11.16	490.8	406.46	0.0652	553.0	9.954	20.15	11.49	1.48
	16.48	22.75	67.50	0.00	0.0616	11.14	490.3	406.12	0.0656	569.6	10.253	20.76	11.93	1.48
	17.48	22.75	67.52	0.00	0.0616	11.16	490.8	406.43	0.0650	551.9	9.934	20.11	11.45	1.48
	18.48	22.77	67.52	0.00	0.0617	11.17	491.7	407.18	0.0650	552.7	9.949	20.14	11.48	1.48
	19.48	22.77	67.50	0.00	0.0616	11.13	489.9	405.85	0.0653	556.6	10.020	20.29	11.58	1.48
	20.48	22.77	67.50	0.00	0.0616	11.15	490.7	406.48	0.0653	551.9	9.935	20.12	11.46	1.48
	21.48	22.75	67.50	0.00	0.0617	11.16	491.2	406.89	0.0655	555.2	9.994	20.24	11.54	1.48
	22.48	22.77	67.50	0.00	0.0617	11.18	492.1	407.67	0.0657	559.4	10.069	20.39	11.66	1.48
	23.50	22.77	67.50	0.00	0.0616	11.16	491.2	406.94	0.0660	562.4	10.123	20.50	11.74	1.48
	24.48	22.79	67.50	0.00	0.0617	11.19	492.2	407.73	0.0660	558.2	10.048	20.35	11.63	1.48
	25.56	22.77	67.50	0.00	0.0617	11.18	491.8	407.41	0.0658	563.1	10.136	20.52	11.76	1.48
	26.48	22.77	67.50	0.00	0.0617	11.17	491.6	407.25	0.0659	560.0	10.081	20.41	11.68	1.48
	27.48	22.75	67.50	0.00	0.0617	11.18	491.9	407.48	0.0662	567.6	10.216	20.69	11.88	1.48
	28.50	22.77	67.50	0.00	0.0618	11.17	491.7	407.31	0.0663	564.7	10.165	20.58	11.80	1.48
	29.50	22.79	67.52	0.00	0.0618	11.21	493.2	408.44	0.0660	560.8	10.094	20.43	11.70	1.48
	30.50	22.77	67.47	0.00	0.0617	11.21	493.0	408.61	0.0665	562.7	10.128	20.52	11.75	1.48
	31.50	22.75	67.50	0.00	0.0616	11.17	491.5	407.16	0.0663	569.6	10.252	20.76	11.93	1.48
	32.50	22.75	67.52	0.00	0.0617	11.18	491.7	407.16	0.0664	566.0	10.188	20.62	11.84	1.48
	33.50	22.75	67.50	0.00	0.0618	11.17	491.6	407.26	0.0661	564.8	10.167	20.59	11.80	1.48
	34.50	22.75	67.50	0.00	0.0618	11.17	491.5	407.11	0.0665	567.1	10.208	20.67	11.87	1.48
	35.50	22.77	67.50	0.00	0.0618	11.20	493.0	408.41	0.0665	565.1	10.172	20.60	11.81	1.48
	36.50	22.79	67.50	0.00	0.0617	11.18	492.0	407.61	0.0668	571.8	10.293	20.85	11.99	1.48
	37.50	22.79	67.50	0.00	0.0618	11.19	492.4	407.96	0.0665	577.8	10.400	21.06	12.15	1.48
	38.48	22.77	67.52	0.00	0.0618	11.19	492.6	407.90	0.0665	567.8	10.221	20.69	11.89	1.48
	39.50	22.77	67.50	0.00	0.0617	11.19	492.4	407.94	0.0669	572.5	10.305	20.87	12.01	1.48
	40.58	22.75	67.50	0.00	0.0617	11.18	492.1	407.60	0.0667	576.8	10.383	21.02	12.12	1.48
	41.50	22.77	67.50	0.00	0.0617	11.18	492.0	407.59	0.0675	576.7	10.380	21.02	12.12	1.48
	42.58	22.75	67.52	0.00	0.0617	11.18	491.9	407.33	0.0670	572.7	10.308	20.86	12.01	1.48
	43.50	22.77	67.50	0.00	0.0617	11.19	492.5	407.96	0.0668	571.9	10.294	20.85	11.99	1.48
	44.56	22.77	67.50	0.00	0.0617	11.18	491.9	407.51	0.0669	573.4	10.321	20.90	12.03	1.48
	45.48	22.77	67.47	0.00	0.0616	11.18	491.8	407.54	0.0669	573.2	10.317	20.90	12.03	1.48
	46.50	22.77	67.50	0.00	0.0617	11.16	491.2	406.92	0.0672	576.6	10.378	21.02	12.12	1.48
	47.48	22.77	67.50	0.00	0.0617	11.18	492.0	407.56	0.0678	580.9	10.457	21.17	12.23	1.48
	48.50	22.79	67.52	0.00	0.0617	11.19	492.3	407.70	0.0673	578.6	10.416	21.08	12.17	1.48
	49.48	22.77	67.50	0.00	0.0618	11.18	492.1	407.63	0.0675	582.8	10.490	21.24	12.28	1.48
	50.50	22.77	67.50	0.00	0.0617	11.19	492.2	407.75	0.0673	578.4	10.411	21.08	12.17	1.48
	51.48	22.77	67.52	0.00	0.0617	11.19	492.3	407.71	0.0674	579.5	10.431	21.11	12.19	1.48
	52.50	22.79	67.50	0.00	0.0616	11.15	490.8	406.58	0.0676	583.2	10.497	21.26	12.29	1.48
	53.48	22.77	67.50	0.00	0.0617	11.18	491.9	407.50	0.0675	579.9	10.439	21.14	12.21	1.48
	54.50	22.77	67.50	0.00	0.0618	11.19	492.2	407.75	0.0680	582.4	10.483	21.23	12.27	1.48
	55.48	22.75	67.50	0.00	0.0616	11.17	491.6	407.25	0.0680	583.2	10.498	21.26	12.29	1.48
	56.48	22.77	67.52	0.00	0.0616	11.14	490.3	405.99	0.0679	583.9	10.510	21.28	12.31	1.48
	57.48	22.77	67.50	0.00	0.0616	11.15	490.6	406.39	0.0681	590.8	10.634	21.53	12.49	1.48
	58.48	22.77	67.50	0.00	0.0617	11.18	491.8	407.44	0.0681	586.7	10.561	21.39	12.38	1.48
	59.56	22.77	67.50	0.00	0.0617	11.19	492.3	407.80	0.0681	588.4	10.590	21.45	12.42	1.48
	60.48	22.77	67.50	0.00	0.0616	11.17	491.6	407.25	0.0684	588.6	10.594	21.45	12.43	1.48
	61.56	22.77	67.50	0.00	0.0617	11.17	491.3	407.00	0.0682	587.3	10.572	21.41	12.40	1.48
	62.48	22.77	67.52	0.00	0.0616	11.17	491.3	406.89	0.0682	590.1	10.622	21.50	12.47	1.48
	63.50	22.75	67.50	0.00	0.0616	11.15	490.7	406.49	0.0684	590.6	10.632	21.53	12.48	1.48
	64.48	22.77	67.50	0.00	0.0616	11.15	490.5	406.35	0.0682	587.9	10.582	21.43	12.41	1.48
	65.50	22.77	67.52	0.00	0.0616	11.16	490.9	406.52	0.0684	593.5	10.683	21.62	12.56	1.48
	66.48	22.77	67.50	0.00	0.0617	11.19	492.2	407.73	0.0684	590.4	10.627	21.52	12.48	1.48
	67.50	22.77	67.50	0.00	0.0618	11.18	492.0	407.57	0.0686	592.8	10.670	21.61	12.54	1.48
	68.48	22.77	67.52	0.00	0.0616	11.16	491.2	406.74	0.0689	597.8	10.761	21.78	12.67	1.48
	69.50	22.77	67.50	0.00	0.0617	11.17	491.5	407.20	0.0684	591.3	10.644	21.55	12.50	1.48
	70.48	22.77	67.50	0.00	0.0616	11.16	490.8	406.61	0.0686	595.9	10.726	21.72	12.62	1.48
	71.50	22.77	67.50	0.00	0.0617	11.18	492.1	407.64	0.0686	593.5	10.684	21.63	12.56	1.48
	72.48	22.77	67.50	0.00	0.0617	11.18	491.7	407.37	0.0690	599.2	10.785	21.84	12.70	1.48
	73.50	22.79	67.50	0.00	0.0617	11.18	492.0	407.63	0.0686	594.3	10.697	21.66	12.58	1.48
	74.48	22.79	67.50	0.00	0.0617	11.16	491.0	406.78	0.0688	597.1	10.748	21.77	12.65	1.48
	75.50	22.79	67.50	0.00	0.0617	11.17	491.7	407.32	0.0688	595.5	10.718	21.71	12.61	1.48
	76.48	22.79	67.52	0.00	0.0616	11.15	490.8	406.45	0.0690	597.4	10.752	21.77	12.66	1.48
	77.52	22.79	67.50	250.00	0.0616	11.16	491.1	406.83	0.0688	596.3	10.734	21.74	12.63	1.48
	78.48	22.81	67.52	0.00	0.0617	11.16	491.2	406.81	0.0687	595.0	10.710	21.68	12.60	1.48
	79.50	22.77	67.50	0.00	0.0617	11.17	491.6	407.22	0.0689	597.1	10.749	21.77	12.65	1.48
	80.56	22.79	67.50	0.00	0.0617	11.19	492.5	407.98	0.0689	597.7	10.759	21.79	12.67	1.48
	81.50	22.77	67.52	0.00	0.0617	11.18	491.9	407.37	0.0692	599.4	10.790	21.84	12.71	1.48
	82.50	22.77	67.47	0.00	0.0617	11.17	491.3	407.18	0.0691	598.7	10.777	21.83	12.69	1.48
	83.50	22.79	67.50	0.00	0.0617	11.17	491.6	407.30	0.0689	598.5	10.773	21.82	12.69	1.48
	84.50	22.79	67.52	0.00	0.0617	11.17	491.6	407.16	0.0690	597.9	10.762	21.79	12.67	1.48
	85.50	22.79	67.52	0.00	0.0617	11.17	491.6	407.15	0.0690	599.8	10.797	21.86	12.72	1.48
	86.50	22.79	67.50	0.00	0.0618	11.17	491.6	407.30	0.0691	600.0	10.801	21.87	12.73	1.48
	87.50	22.79	67.50	0.00	0.0617	11.18	491.8	407.48	0.0691	600.5	10.809	21.89	12.74	1.48
	88.50	22.77	67.50	0.00	0.0617	11.17	491.4	407.12	0.0692	601.2	10.822	21.91	12.75	1.48
	89.48	22.79	67.50	0.00	0.0617	11.18	491.9	407.49	0.0692	601.5	10.828	21.93	12.76	1.48
	90.50	22.81	67.50	0.00	0.0617	11.17	491.5	407.19	0.0694	600.4	10.806	21.89	12.73	1.48
	91.48	22.79	67.50	0.00	0.0616	11.18	492.0	407.57	0.0694	601.8	10.833	21.94	12.77	1.48
	92.50	22.79	67.52	0.00	0.0617	11.18	492.1	407.50	0.0694	606.4	10.916	22.10	12.89	1.48
	93.48	22.79	67.50	0.00	0.0617	11.18	492.0	407.60	0.0695	604.8	10.886	22.05	12.85	1.48
	94.50	22.79	67.50	0.00	0.0617	11.18	492.1	407.72	0.0697	607.3	10.932	22.14	12.91	1.48
	95.48	22.79	67.50	0.00	0.0618	11.20	492.9	408.35	0.0693	605.0	10.890	22.05	12.85	1.48
	96.50	22.79	67.50	0.00	0.0618	11.20	492.9	408.36	0.0696	604.8	10.887	22.05	12.85	1.48
	97.56	22.79	67.50	0.00	0.0617	11.19	492.2	407.81	0.0697	605.9	10.906	22.09	12.87	1.48
	98.50	22.79	67.50	0.00	0.0618	11.19	492.4	407.90	0.0697	606.4	10.916	22.11	12.89	1.48
	99.56	22.79	67.50	0.00	0.0617	11.20	492.7	408.15	0.0699	608.3	10.950	22.17	12.93	1.48
	100.50	22.79	67.50	0.00	0.0617	11.16	491.2	406.92	0.0696	605.5	10.899	22.07	12.86	1.48
	101.50	22.79	67.50	0.00	0.0618	11.19	492.6	408.07	0.0698	607.2	10.930	22.13	12.91	1.48
	102.50	22.79	67.50	0.00	0.0618	11.21	493.3	408.65	0.0699	607.8	10.941	22.16	12.92	1.48
	103.50	22.79	67.50	0.00	0.0617	11.18	491.8	407.44	0.0696	606.0	10.908	22.09	12.88	1.48
	104.48	22.79	67.50	0.00	0.0617	11.18	491.8	407.45	0.0700	609.1	10.964	22.20	12.95	1.48
	105.50	22.79	67.52	0.00	0.0618	11.19	492.3	407.71	0.0697	606.9	10.924	22.12	12.90	1.48
	106.50	22.79	67.52	0.00	0.0618	11.20	492.7	408.07	0.0697	607.4	10.934	22.13	12.91	1.48
	107.50	22.79	67.50	0.00	0.0618	11.19	492.4	407.93	0.0697	606.7	10.921	22.12	12.89	1.48
	108.50	22.79	67.50	0.00	0.0618	11.22	493.5	408.85	0.0698	607.5	10.934	22.14	12.91	1.48
	109.50	22.79	67.50	0.00	0.0618	11.21	493.3	408.65	0.0698	609.0	10.962	22.20	12.95	1.48
	110.50	22.77	67.50	0.00	0.0617	11.20	492.8	408.27	0.0698	608.9	10.961	22.20	12.95	1.48
	111.50	22.81	67.50	0.00	0.0618	11.18	492.1	407.73	0.0699	609.7	10.975	22.23	12.97	1.48
	112.50	22.77	67.50	0.00	0.0617	11.19	492.2	407.75	0.0699	609.0	10.962	22.20	12.95	1.48
	113.50	22.79	67.50	0.00	0.0617	11.19	492.3	407.86	0.0698	609.4	10.969	22.21	12.96	1.48
	114.50	22.81	67.50	0.00	0.0619	11.22	493.6	408.93	0.0700	609.9	10.979	22.24	12.98	1.48
	115.50	22.79	67.50	0.00	0.0619	11.22	493.6	408.96	0.0701	611.6	11.008	22.29	13.02	1.48
	116.58	22.79	67.50	0.00	0.0619	11.23	494.0	409.28	0.0702	611.6	11.009	22.30	13.02	1.48
	117.50	22.79	67.52	0.00	0.0619	11.22	493.5	408.73	0.0701	614.5	11.061	22.39	13.09	1.48
	118.52	22.79	67.50	0.00	0.0619	11.23	494.0	409.29	0.0700	611.3	11.003	22.28	13.01	1.48
	119.50	22.79	67.50	0.00	0.0619	11.22	493.8	409.13	0.0702	613.7	11.047	22.37	13.07	1.48
	120.50	22.79	67.50	0.00	0.0618	11.21	493.1	408.53	0.0701	613.4	11.041	22.36	13.06	1.48
	121.50	22.77	67.50	0.00	0.0619	11.23	494.0	409.25	0.0704	621.8	11.193	22.67	13.27	1.48
	122.50	22.81	67.52	0.00	0.0619	11.23	494.1	409.20	0.0701	614.1	11.054	22.38	13.08	1.48
