Mar 15 2018 at 9:53:45
Frequency: 1.00Hz.
CO2
Zero:  Value:0.91  Date:May 19 2009 at 7:53:33 AM
Span:  Value:1.00  Date:May 19 2009 at 8:00:06 AM
H2O
Zero:  Value:0.77  Date:May 19 2009 at 7:54:01 AM
Span:  Value:1.01  Date:28 Jun 2004	 at 08:29:05	
Light fog and low PAR, light rain
	Relative Time	Temperature	Pressure	Aux Input	CO2 Absorptance	CO2 mmol/m3	CO2 mg/m3	CO2 umol/mol	H2O Absorptance	H2O mmol/m3	H2O g/m3	H2O mmol/mol	H2O(°C)	Cooler Voltage
	0.41	22.80	67.52	0.00	0.0625	11.36	499.9	414.03	0.0625	521.2	9.381	18.99	10.59	1.42
	1.41	22.82	67.50	0.00	0.0624	11.36	499.7	414.03	0.0626	521.1	9.380	19.00	10.59	1.42
	2.41	22.80	67.47	0.00	0.0625	11.34	499.2	413.71	0.0627	522.2	9.400	19.04	10.62	1.42
	3.48	22.80	67.52	0.00	0.0625	11.36	499.7	413.83	0.0629	524.3	9.438	19.11	10.68	1.42
	4.41	22.80	67.55	0.00	0.0625	11.36	500.1	414.01	0.0629	526.1	9.470	19.17	10.74	1.42
	5.41	22.80	67.50	0.00	0.0625	11.36	499.8	414.12	0.0629	525.2	9.453	19.15	10.71	1.42
	6.41	22.76	67.50	0.00	0.0625	11.36	499.7	413.93	0.0633	528.5	9.513	19.26	10.80	1.42
	7.41	22.80	67.50	0.00	0.0625	11.36	499.7	414.00	0.0633	528.9	9.520	19.28	10.81	1.42
	8.41	22.80	67.50	0.00	0.0624	11.36	499.6	413.96	0.0631	527.9	9.503	19.25	10.79	1.42
	9.47	22.80	67.50	0.00	0.0624	11.36	499.8	414.07	0.0633	530.2	9.544	19.33	10.85	1.42
	10.41	22.80	67.50	0.00	0.0625	11.36	499.7	414.03	0.0635	532.4	9.584	19.41	10.92	1.42
	11.41	22.80	67.50	0.00	0.0625	11.36	499.6	413.96	0.0636	532.8	9.591	19.42	10.93	1.42
	12.41	22.82	67.50	0.00	0.0624	11.35	499.5	413.83	0.0636	532.5	9.586	19.41	10.92	1.42
	13.41	22.82	67.47	0.00	0.0625	11.34	499.2	413.72	0.0636	532.0	9.576	19.40	10.90	1.42
	14.41	22.80	67.52	0.00	0.0625	11.35	499.4	413.57	0.0636	533.3	9.599	19.43	10.94	1.42
	15.41	22.80	67.50	0.00	0.0624	11.35	499.5	413.86	0.0639	536.0	9.647	19.54	11.01	1.42
	16.41	22.80	67.50	0.00	0.0624	11.36	499.9	414.20	0.0640	538.0	9.684	19.61	11.07	1.42
	17.41	22.80	67.52	0.00	0.0624	11.35	499.5	413.65	0.0638	535.7	9.643	19.52	11.01	1.42
	18.41	22.80	67.50	0.00	0.0624	11.36	499.8	414.10	0.0641	538.5	9.693	19.63	11.09	1.42
	19.41	22.79	67.52	0.00	0.0625	11.35	499.3	413.53	0.0640	537.0	9.665	19.57	11.04	1.42
	20.41	22.79	67.50	0.00	0.0625	11.37	500.4	414.55	0.0641	538.9	9.700	19.64	11.10	1.42
	21.41	22.80	67.50	0.00	0.0625	11.37	500.2	414.42	0.0642	540.2	9.724	19.69	11.13	1.42
	22.48	22.80	67.50	0.00	0.0625	11.35	499.6	413.93	0.0642	540.5	9.729	19.70	11.14	1.42
	23.41	22.80	67.50	0.00	0.0625	11.35	499.4	413.75	0.0644	541.3	9.743	19.73	11.16	1.42
	24.41	22.80	67.47	0.00	0.0624	11.35	499.4	413.92	0.0644	541.8	9.753	19.76	11.18	1.42
	25.41	22.80	67.50	0.00	0.0625	11.36	499.9	414.14	0.0645	542.7	9.769	19.79	11.20	1.42
	26.48	22.82	67.47	0.00	0.0625	11.36	499.9	414.30	0.0645	544.3	9.797	19.85	11.25	1.42
	27.41	22.80	67.50	0.00	0.0625	11.36	500.0	414.22	0.0645	545.5	9.819	19.89	11.28	1.42
	28.42	22.80	67.52	0.00	0.0624	11.35	499.4	413.60	0.0646	546.7	9.841	19.92	11.31	1.42
	29.41	22.79	67.50	0.00	0.0625	11.36	499.9	414.16	0.0648	548.3	9.869	19.99	11.36	1.42
	30.41	22.82	67.50	0.00	0.0625	11.35	499.6	413.96	0.0648	547.5	9.856	19.96	11.34	1.42
	31.41	22.80	67.50	0.00	0.0625	11.36	499.9	414.20	0.0648	547.7	9.858	19.97	11.34	1.42
	32.41	22.80	67.50	0.00	0.0625	11.36	499.8	414.06	0.0648	548.2	9.867	19.98	11.35	1.42
	33.41	22.79	67.50	0.00	0.0625	11.36	500.0	414.23	0.0650	550.2	9.904	20.06	11.41	1.42
	34.41	22.79	67.50	0.00	0.0625	11.37	500.4	414.60	0.0650	550.0	9.900	20.05	11.40	1.42
	35.42	22.80	67.47	250.00	0.0625	11.38	500.6	414.90	0.0650	551.2	9.922	20.10	11.44	1.42
	36.41	22.79	67.50	0.00	0.0625	11.38	500.9	414.97	0.0651	551.8	9.933	20.11	11.45	1.42
	37.41	22.80	67.52	0.00	0.0625	11.38	500.6	414.62	0.0653	553.0	9.954	20.15	11.49	1.42
	38.41	22.80	67.50	0.00	0.0625	11.38	500.5	414.70	0.0653	554.6	9.982	20.22	11.53	1.42
	39.41	22.80	67.47	0.00	0.0626	11.38	500.7	414.96	0.0653	553.7	9.966	20.19	11.51	1.42
	40.41	22.82	67.52	0.00	0.0626	11.37	500.2	414.27	0.0654	554.2	9.976	20.20	11.52	1.42
	41.39	22.80	67.50	0.00	0.0625	11.38	500.8	414.95	0.0655	556.3	10.014	20.28	11.58	1.42
	42.41	22.82	67.52	0.00	0.0626	11.39	501.3	415.20	0.0655	556.2	10.012	20.27	11.58	1.42
	43.47	22.80	67.50	0.00	0.0625	11.38	500.5	414.68	0.0655	555.7	10.003	20.26	11.56	1.42
	44.41	22.78	67.54	0.00	0.0625	11.38	500.8	414.61	0.0655	557.3	10.031	20.30	11.60	1.42
	45.42	22.80	67.50	0.00	0.0625	11.38	500.8	414.91	0.0656	557.9	10.041	20.34	11.62	1.42
	46.41	22.80	67.50	0.00	0.0626	11.38	500.6	414.76	0.0657	558.7	10.057	20.37	11.64	1.42
	47.42	22.80	67.50	0.00	0.0626	11.41	501.9	415.81	0.0659	559.3	10.068	20.39	11.66	1.42
	48.41	22.78	67.50	0.00	0.0626	11.39	501.0	415.09	0.0658	559.0	10.062	20.38	11.65	1.42
	49.42	22.80	67.50	0.00	0.0626	11.38	500.9	414.97	0.0658	559.9	10.079	20.41	11.67	1.42
	50.41	22.84	67.47	0.00	0.0626	11.39	501.3	415.54	0.0658	560.5	10.089	20.44	11.69	1.42
	51.42	22.80	67.47	0.00	0.0626	11.40	501.5	415.66	0.0659	561.0	10.099	20.46	11.70	1.42
	52.41	22.82	67.50	0.00	0.0626	11.40	501.5	415.52	0.0660	561.8	10.112	20.48	11.73	1.42
	53.41	22.80	67.50	0.00	0.0627	11.40	501.5	415.49	0.0661	562.0	10.116	20.49	11.73	1.42
	54.41	22.84	67.50	0.00	0.0626	11.40	501.5	415.52	0.0660	562.8	10.130	20.52	11.75	1.42
	55.41	22.76	67.52	0.00	0.0626	11.40	501.6	415.40	0.0661	563.6	10.144	20.53	11.77	1.42
	56.41	22.80	67.52	0.00	0.0627	11.40	501.6	415.45	0.0662	564.0	10.152	20.55	11.78	1.42
	57.41	22.80	67.50	0.00	0.0626	11.40	501.6	415.55	0.0662	564.8	10.167	20.59	11.81	1.42
	58.41	22.80	67.50	0.00	0.0626	11.40	501.6	415.59	0.0663	566.3	10.193	20.64	11.85	1.42
	59.41	22.80	67.52	0.00	0.0626	11.40	501.7	415.52	0.0663	565.7	10.183	20.61	11.83	1.42
	60.41	22.82	67.50	0.00	0.0626	11.40	501.6	415.62	0.0664	566.3	10.194	20.65	11.85	1.42
	61.41	22.80	67.50	0.00	0.0627	11.40	501.7	415.71	0.0665	567.0	10.206	20.67	11.87	1.42
	62.48	22.82	67.50	0.00	0.0627	11.40	501.7	415.72	0.0665	568.2	10.227	20.71	11.90	1.42
	63.41	22.82	67.50	0.00	0.0626	11.40	501.7	415.70	0.0665	568.2	10.227	20.71	11.90	1.42
	64.42	22.82	67.50	0.00	0.0626	11.40	501.6	415.62	0.0666	569.2	10.245	20.75	11.92	1.42
	65.41	22.82	67.52	0.00	0.0626	11.40	501.8	415.62	0.0667	569.3	10.248	20.75	11.93	1.42
	66.42	22.80	67.50	0.00	0.0627	11.40	501.7	415.64	0.0667	570.0	10.260	20.78	11.95	1.42
	67.41	22.82	67.52	0.00	0.0626	11.40	501.6	415.42	0.0667	570.3	10.265	20.78	11.95	1.42
	68.42	22.82	67.52	0.00	0.0626	11.40	501.6	415.50	0.0666	570.7	10.272	20.80	11.96	1.42
	69.41	22.82	67.52	0.00	0.0625	11.40	501.5	415.36	0.0666	570.9	10.277	20.81	11.97	1.42
	70.41	22.80	67.52	0.00	0.0626	11.39	501.3	415.19	0.0668	571.0	10.278	20.81	11.97	1.42
	71.39	22.82	67.50	0.00	0.0627	11.39	501.0	415.11	0.0668	570.6	10.271	20.80	11.96	1.42
	72.41	22.82	67.52	0.00	0.0627	11.41	502.0	415.81	0.0668	572.0	10.296	20.85	12.00	1.42
	73.39	22.82	67.52	0.00	0.0626	11.40	501.6	415.43	0.0667	571.8	10.293	20.84	11.99	1.42
	74.41	22.80	67.50	0.00	0.0627	11.40	501.5	415.51	0.0669	573.2	10.318	20.90	12.03	1.42
	75.39	22.82	67.50	0.00	0.0626	11.40	501.5	415.54	0.0668	573.1	10.317	20.90	12.03	1.42
	76.42	22.78	67.50	250.00	0.0626	11.41	502.1	415.99	0.0670	574.0	10.333	20.93	12.05	1.42
	77.41	22.82	67.50	0.00	0.0627	11.41	501.9	415.85	0.0670	574.3	10.337	20.94	12.06	1.42
	78.41	22.80	67.50	0.00	0.0628	11.41	502.0	415.89	0.0671	574.6	10.342	20.95	12.07	1.42
	79.48	22.82	67.52	0.00	0.0627	11.41	502.0	415.80	0.0671	575.1	10.352	20.96	12.08	1.42
	80.41	22.80	67.52	0.00	0.0626	11.41	502.1	415.84	0.0671	575.9	10.366	20.99	12.10	1.42
	81.42	22.80	67.52	0.00	0.0626	11.41	502.1	415.85	0.0671	575.1	10.352	20.96	12.08	1.42
	82.41	22.78	67.52	0.00	0.0627	11.42	502.3	415.95	0.0673	577.1	10.388	21.03	12.13	1.42
	83.42	22.80	67.50	0.00	0.0627	11.41	501.9	415.85	0.0671	576.5	10.378	21.02	12.12	1.42
	84.41	22.80	67.50	0.00	0.0627	11.41	502.0	415.91	0.0672	576.8	10.383	21.03	12.13	1.42
	85.42	22.78	67.57	0.00	0.0627	11.40	501.8	415.24	0.0672	576.8	10.382	21.00	12.12	1.42
	86.41	22.80	67.50	0.00	0.0627	11.40	501.8	415.74	0.0673	577.1	10.388	21.04	12.13	1.42
	87.42	22.80	67.50	0.00	0.0627	11.41	502.1	415.98	0.0673	578.2	10.407	21.08	12.16	1.42
	88.41	22.80	67.50	0.00	0.0627	11.41	502.2	416.06	0.0673	578.2	10.407	21.08	12.16	1.42
	89.42	22.80	67.50	0.00	0.0627	11.41	502.0	415.92	0.0673	577.5	10.394	21.05	12.14	1.42
	90.41	22.80	67.50	0.00	0.0627	11.40	501.7	415.67	0.0673	577.2	10.390	21.04	12.14	1.42
	91.44	22.79	67.50	-250.10	0.0627	11.41	501.9	415.83	0.0673	577.6	10.398	21.06	12.15	1.42
	92.41	22.80	67.52	0.00	0.0626	11.40	501.6	415.46	0.0673	578.0	10.403	21.06	12.16	1.42
	93.41	22.80	67.50	0.00	0.0627	11.41	501.9	415.86	0.0673	577.6	10.397	21.06	12.15	1.42
	94.41	22.78	67.50	0.00	0.0627	11.39	501.3	415.30	0.0674	578.2	10.408	21.08	12.16	1.42
	95.41	22.79	67.52	0.00	0.0626	11.41	501.8	415.59	0.0673	578.9	10.421	21.10	12.18	1.42
	96.48	22.80	67.50	0.00	0.0626	11.40	501.7	415.67	0.0674	579.3	10.427	21.12	12.19	1.42
	97.41	22.80	67.50	0.00	0.0626	11.39	501.2	415.22	0.0674	578.8	10.418	21.10	12.18	1.42
	98.42	22.79	67.47	0.00	0.0626	11.40	501.6	415.71	0.0674	579.5	10.432	21.13	12.20	1.42
	99.41	22.80	67.52	0.00	0.0626	11.40	501.8	415.56	0.0675	580.0	10.441	21.14	12.21	1.42
	100.41	22.78	67.50	0.00	0.0626	11.40	501.5	415.45	0.0675	580.1	10.443	21.15	12.21	1.42
	101.39	22.82	67.50	0.00	0.0626	11.40	501.6	415.62	0.0675	580.1	10.441	21.15	12.21	1.42
	102.41	22.80	67.50	0.00	0.0625	11.39	501.0	415.06	0.0675	581.1	10.459	21.18	12.24	1.42
	103.39	22.80	67.54	0.00	0.0626	11.39	501.2	415.01	0.0675	581.0	10.459	21.17	12.24	1.42
	104.41	22.84	67.50	0.00	0.0626	11.39	501.1	415.23	0.0676	581.1	10.460	21.19	12.24	1.42
	105.39	22.79	67.52	0.00	0.0627	11.40	501.7	415.50	0.0676	581.3	10.463	21.18	12.24	1.42
	106.41	22.80	67.47	0.00	0.0626	11.39	501.1	415.27	0.0677	581.5	10.466	21.20	12.25	1.42
	107.41	22.79	67.50	0.00	0.0627	11.40	501.5	415.51	0.0676	582.1	10.478	21.22	12.26	1.42
	108.42	22.77	67.52	0.00	0.0626	11.39	501.1	415.00	0.0675	582.1	10.477	21.21	12.26	1.42
	109.41	22.79	67.52	0.00	0.0624	11.37	500.1	414.16	0.0676	581.3	10.464	21.18	12.24	1.42
	110.42	22.79	67.52	0.00	0.0626	11.38	500.8	414.75	0.0676	582.6	10.487	21.23	12.28	1.42
	111.41	22.77	67.52	0.00	0.0625	11.39	501.1	414.99	0.0677	582.7	10.488	21.23	12.28	1.42
	112.42	22.79	67.50	0.00	0.0626	11.39	501.1	415.11	0.0678	583.1	10.496	21.26	12.29	1.42
	113.48	22.79	67.50	0.00	0.0626	11.39	501.3	415.35	0.0678	583.7	10.507	21.28	12.31	1.42
	114.41	22.80	67.50	0.00	0.0625	11.39	501.1	415.16	0.0678	584.5	10.521	21.31	12.33	1.42
	115.42	22.80	67.50	0.00	0.0625	11.39	501.0	415.07	0.0678	585.3	10.535	21.34	12.35	1.42
	116.41	22.80	67.47	0.00	0.0626	11.39	501.1	415.29	0.0679	585.6	10.541	21.36	12.36	1.42
	117.42	22.80	67.52	0.00	0.0626	11.38	500.8	414.80	0.0681	586.0	10.547	21.35	12.36	1.42
	118.41	22.80	67.50	0.00	0.0626	11.38	500.9	415.03	0.0680	585.8	10.544	21.35	12.36	1.42
	119.42	22.80	67.50	0.00	0.0626	11.39	501.1	415.15	0.0680	586.9	10.564	21.40	12.39	1.42
	120.41	22.79	67.52	0.00	0.0626	11.38	500.6	414.53	0.0680	586.1	10.550	21.36	12.37	1.42
	121.42	22.80	67.50	0.00	0.0626	11.38	500.9	414.99	0.0681	587.0	10.566	21.40	12.39	1.42
	122.41	22.80	67.52	0.00	0.0626	11.39	501.3	415.14	0.0681	587.8	10.581	21.42	12.41	1.42
	123.42	22.82	67.47	0.00	0.0625	11.36	500.1	414.47	0.0680	586.6	10.558	21.39	12.38	1.42
	124.41	22.82	67.50	0.00	0.0626	11.39	501.0	415.13	0.0681	587.5	10.574	21.42	12.40	1.42
	125.42	22.80	67.50	0.00	0.0625	11.38	500.8	414.91	0.0681	588.1	10.585	21.44	12.42	1.42
	126.41	22.80	67.50	0.00	0.0625	11.39	501.1	415.17	0.0682	588.9	10.601	21.47	12.44	1.42
	127.42	22.80	67.50	0.00	0.0626	11.38	500.8	414.91	0.0683	589.7	10.615	21.50	12.46	1.42
	128.41	22.80	67.50	0.00	0.0625	11.38	500.9	414.96	0.0682	589.3	10.607	21.48	12.45	1.42
