Mar 15 2018 at 9:46:49
Frequency: 1.00Hz.
CO2
Zero:  Value:0.91  Date:May 19 2009 at 7:53:33 AM
Span:  Value:1.00  Date:May 19 2009 at 8:00:06 AM
H2O
Zero:  Value:0.77  Date:May 19 2009 at 7:54:01 AM
Span:  Value:1.01  Date:28 Jun 2004	 at 08:29:05	
Light fog and low PAR, dry
	Relative Time	Temperature	Pressure	Aux Input	CO2 Absorptance	CO2 mmol/m3	CO2 mg/m3	CO2 umol/mol	H2O Absorptance	H2O mmol/m3	H2O g/m3	H2O mmol/mol	H2O(°C)	Cooler Voltage
	0.84	22.87	67.50	0.00	0.0623	11.34	499.1	413.60	0.0632	529.1	9.524	19.29	10.82	1.45
	1.84	22.89	67.50	0.00	0.0623	11.35	499.5	414.00	0.0633	529.9	9.538	19.32	10.85	1.45
	2.84	22.91	67.52	0.00	0.0625	11.35	499.3	413.69	0.0634	530.0	9.539	19.32	10.85	1.45
	3.84	22.91	67.50	0.00	0.0625	11.36	499.7	414.17	0.0633	530.6	9.551	19.35	10.87	1.45
	4.84	22.91	67.47	0.00	0.0625	11.36	499.9	414.47	0.0634	532.8	9.590	19.43	10.93	1.45
	5.83	22.91	67.50	0.00	0.0624	11.36	499.9	414.31	0.0633	531.0	9.557	19.36	10.88	1.45
	6.84	22.91	67.50	0.00	0.0625	11.37	500.1	414.48	0.0634	531.0	9.558	19.36	10.88	1.45
	7.83	22.89	67.50	0.00	0.0625	11.37	500.1	414.42	0.0635	531.4	9.566	19.38	10.89	1.45
	8.84	22.91	67.50	0.00	0.0625	11.36	500.1	414.45	0.0633	530.9	9.556	19.36	10.88	1.45
	9.83	22.91	67.52	0.00	0.0625	11.36	499.9	414.15	0.0634	531.2	9.561	19.36	10.88	1.45
	10.84	22.91	67.50	0.00	0.0625	11.37	500.4	414.71	0.0634	531.7	9.570	19.39	10.90	1.45
	11.84	22.91	67.52	0.00	0.0626	11.37	500.3	414.53	0.0634	531.7	9.571	19.38	10.90	1.44
	12.84	22.91	67.50	0.00	0.0626	11.37	500.3	414.66	0.0634	531.4	9.565	19.38	10.89	1.45
	13.84	22.89	67.50	0.00	0.0626	11.38	500.7	414.98	0.0636	532.4	9.583	19.41	10.92	1.45
	14.84	22.91	67.50	0.00	0.0626	11.38	500.8	415.07	0.0635	532.5	9.584	19.42	10.92	1.44
	15.84	22.91	67.50	0.00	0.0626	11.38	500.8	415.03	0.0634	532.6	9.586	19.42	10.92	1.45
	16.84	22.91	67.50	0.00	0.0626	11.38	500.9	415.15	0.0635	532.7	9.588	19.43	10.93	1.45
	17.84	22.91	67.52	0.00	0.0625	11.38	500.6	414.73	0.0635	531.9	9.574	19.39	10.91	1.45
	18.84	22.91	67.52	0.00	0.0625	11.39	501.1	415.15	0.0636	533.3	9.599	19.44	10.94	1.45
	19.84	22.89	67.50	0.00	0.0627	11.40	501.5	415.63	0.0635	533.1	9.595	19.44	10.94	1.45
	20.84	22.91	67.50	0.00	0.0626	11.40	501.5	415.65	0.0636	533.3	9.600	19.45	10.95	1.44
	21.84	22.89	67.52	0.00	0.0627	11.40	501.6	415.56	0.0636	534.2	9.615	19.47	10.97	1.45
	22.84	22.91	67.50	0.00	0.0626	11.41	502.2	416.19	0.0637	535.0	9.629	19.51	10.99	1.45
	23.86	22.91	67.50	0.00	0.0628	11.41	502.0	416.03	0.0638	534.1	9.615	19.48	10.97	1.44
	24.84	22.91	67.50	0.00	0.0627	11.42	502.3	416.32	0.0637	534.7	9.625	19.50	10.98	1.44
	25.84	22.89	67.50	0.00	0.0627	11.42	502.5	416.47	0.0638	535.9	9.647	19.54	11.02	1.44
	26.84	22.91	67.50	0.00	0.0627	11.42	502.6	416.54	0.0638	534.7	9.625	19.50	10.99	1.44
	27.84	22.89	67.50	0.00	0.0628	11.42	502.5	416.43	0.0640	536.7	9.660	19.57	11.04	1.45
	28.86	22.91	67.50	0.00	0.0628	11.42	502.5	416.51	0.0638	535.9	9.646	19.54	11.02	1.44
	29.84	22.91	67.50	0.00	0.0627	11.43	502.9	416.78	0.0638	536.2	9.651	19.55	11.03	1.44
	30.86	22.91	67.50	0.00	0.0629	11.43	502.7	416.66	0.0639	536.3	9.653	19.56	11.03	1.44
	31.84	22.91	67.50	0.00	0.0627	11.42	502.4	416.36	0.0638	535.2	9.634	19.52	11.00	1.44
	32.84	22.91	67.47	0.00	0.0628	11.43	502.9	416.94	0.0639	536.3	9.653	19.56	11.03	1.45
	33.84	22.89	67.52	0.00	0.0628	11.43	503.0	416.74	0.0639	536.3	9.653	19.55	11.03	1.45
	34.84	22.89	67.50	0.00	0.0628	11.44	503.5	417.27	0.0639	537.2	9.669	19.59	11.05	1.44
	35.86	22.91	67.50	250.00	0.0628	11.44	503.4	417.19	0.0639	536.7	9.661	19.57	11.04	1.44
	36.84	22.91	67.50	0.00	0.0629	11.44	503.6	417.35	0.0640	537.2	9.669	19.59	11.05	1.44
	37.84	22.89	67.50	0.00	0.0628	11.45	503.7	417.43	0.0639	537.1	9.669	19.59	11.05	1.44
	38.84	22.91	67.50	0.00	0.0628	11.46	504.1	417.82	0.0640	538.0	9.684	19.62	11.08	1.45
	39.84	22.91	67.50	0.00	0.0628	11.45	503.9	417.67	0.0641	539.3	9.707	19.67	11.11	1.44
	40.84	22.91	67.50	0.00	0.0629	11.46	504.1	417.84	0.0640	538.8	9.699	19.65	11.10	1.44
	41.84	22.91	67.52	0.00	0.0629	11.46	504.4	417.85	0.0641	540.7	9.732	19.71	11.15	1.44
	42.84	22.91	67.50	0.00	0.0630	11.46	504.4	418.02	0.0640	538.7	9.697	19.65	11.10	1.44
	43.84	22.91	67.50	0.00	0.0629	11.46	504.5	418.09	0.0641	539.5	9.712	19.68	11.12	1.44
	44.84	22.93	67.50	0.00	0.0630	11.47	504.8	418.39	0.0642	539.7	9.715	19.68	11.13	1.45
	45.86	22.91	67.50	0.00	0.0630	11.48	505.0	418.55	0.0642	541.4	9.746	19.74	11.17	1.44
	46.84	22.89	67.50	0.00	0.0629	11.48	504.9	418.47	0.0642	542.5	9.766	19.78	11.20	1.44
	47.86	22.89	67.55	0.00	0.0629	11.47	504.7	417.93	0.0643	540.7	9.733	19.70	11.15	1.44
	48.84	22.91	67.50	0.00	0.0630	11.49	505.4	418.85	0.0642	540.8	9.734	19.72	11.15	1.44
	49.84	22.91	67.50	0.00	0.0631	11.48	505.1	418.65	0.0642	540.1	9.722	19.70	11.14	1.44
	50.84	22.91	67.50	0.00	0.0630	11.50	505.8	419.23	0.0641	541.0	9.739	19.73	11.16	1.45
	51.84	22.91	67.47	0.00	0.0630	11.49	505.7	419.30	0.0643	542.1	9.758	19.78	11.19	1.44
	52.84	22.91	67.50	0.00	0.0630	11.50	506.2	419.52	0.0643	542.0	9.755	19.76	11.19	1.44
	53.84	22.91	67.50	0.00	0.0630	11.50	506.1	419.43	0.0643	541.8	9.752	19.76	11.18	1.44
	54.84	22.91	67.52	0.00	0.0632	11.51	506.5	419.65	0.0644	542.5	9.764	19.77	11.20	1.44
	55.86	22.93	67.52	0.00	0.0630	11.51	506.3	419.49	0.0643	541.9	9.755	19.76	11.19	1.44
	56.84	22.91	67.50	0.00	0.0632	11.51	506.5	419.76	0.0644	542.9	9.772	19.80	11.21	1.44
	57.86	22.91	67.47	0.00	0.0631	11.51	506.4	419.88	0.0644	542.7	9.769	19.80	11.21	1.44
	58.84	22.91	67.47	0.00	0.0632	11.52	506.9	420.32	0.0646	543.1	9.777	19.81	11.22	1.44
	59.86	22.91	67.50	0.00	0.0631	11.53	507.2	420.34	0.0645	543.5	9.782	19.82	11.23	1.44
	60.84	22.91	67.50	0.00	0.0632	11.53	507.3	420.47	0.0645	544.3	9.798	19.85	11.25	1.44
	61.86	22.91	67.50	0.00	0.0632	11.53	507.4	420.57	0.0645	544.2	9.795	19.84	11.25	1.44
	62.86	22.91	67.50	0.00	0.0632	11.54	507.7	420.76	0.0645	544.4	9.799	19.85	11.25	1.45
	63.86	22.91	67.50	0.00	0.0632	11.52	507.1	420.28	0.0646	544.2	9.795	19.84	11.25	1.44
	64.86	22.89	67.52	0.00	0.0633	11.54	507.6	420.52	0.0647	544.4	9.799	19.84	11.25	1.44
	65.86	22.91	67.50	0.00	0.0632	11.54	507.8	420.87	0.0645	545.4	9.818	19.89	11.28	1.44
	66.86	22.93	67.50	0.00	0.0632	11.54	507.9	420.97	0.0646	544.3	9.798	19.85	11.25	1.44
	67.84	22.93	67.50	0.00	0.0632	11.55	508.2	421.21	0.0646	545.0	9.810	19.88	11.27	1.44
	68.86	22.93	67.50	0.00	0.0633	11.55	508.3	421.28	0.0646	545.5	9.819	19.89	11.29	1.44
	69.84	22.91	67.50	0.00	0.0632	11.55	508.3	421.26	0.0647	546.1	9.830	19.92	11.30	1.44
	70.86	22.93	67.50	0.00	0.0634	11.55	508.4	421.38	0.0649	546.5	9.836	19.93	11.31	1.44
	71.84	22.91	67.50	0.00	0.0634	11.56	508.4	421.39	0.0648	546.4	9.835	19.93	11.31	1.44
	72.86	22.91	67.50	0.00	0.0633	11.55	508.4	421.37	0.0647	546.1	9.829	19.91	11.30	1.44
	73.84	22.89	67.52	0.00	0.0633	11.56	508.8	421.57	0.0646	546.9	9.844	19.94	11.32	1.44
	74.86	22.91	67.50	0.00	0.0633	11.56	508.7	421.59	0.0648	546.8	9.843	19.94	11.32	1.44
	75.84	22.91	67.50	0.00	0.0634	11.57	509.1	421.94	0.0647	547.5	9.855	19.97	11.34	1.44
	76.86	22.91	67.50	0.00	0.0634	11.57	509.0	421.83	0.0647	547.2	9.850	19.96	11.33	1.44
	77.84	22.91	67.50	0.00	0.0633	11.57	509.0	421.89	0.0649	547.8	9.861	19.98	11.35	1.44
	78.86	22.95	67.50	0.00	0.0633	11.57	509.1	421.98	0.0648	547.6	9.856	19.97	11.35	1.44
	79.92	22.91	67.50	0.00	0.0634	11.58	509.4	422.16	0.0648	547.9	9.862	19.98	11.35	1.44
	80.86	22.91	67.50	0.00	0.0634	11.58	509.6	422.36	0.0648	548.9	9.880	20.02	11.38	1.44
	81.86	22.91	67.50	0.00	0.0634	11.58	509.6	422.33	0.0648	548.8	9.878	20.01	11.38	1.44
	82.86	22.91	67.52	0.00	0.0633	11.58	509.5	422.12	0.0649	548.6	9.874	20.00	11.37	1.44
	83.86	22.91	67.50	0.00	0.0634	11.59	509.8	422.55	0.0649	549.3	9.887	20.03	11.39	1.44
	84.86	22.91	67.50	0.00	0.0634	11.59	510.1	422.79	0.0648	549.4	9.889	20.03	11.39	1.44
	85.86	22.89	67.50	0.00	0.0636	11.59	510.1	422.76	0.0651	550.0	9.899	20.05	11.41	1.44
	86.84	22.91	67.50	0.00	0.0635	11.59	509.8	422.56	0.0649	549.2	9.886	20.03	11.39	1.44
	87.86	22.89	67.50	0.00	0.0634	11.59	510.1	422.72	0.0649	550.0	9.900	20.06	11.41	1.44
	88.84	22.93	67.50	0.00	0.0635	11.59	510.2	422.84	0.0650	549.7	9.895	20.05	11.40	1.44
	89.84	22.89	67.50	0.00	0.0635	11.60	510.6	423.13	0.0650	550.5	9.909	20.07	11.42	1.44
	90.84	22.91	67.50	0.00	0.0636	11.60	510.6	423.19	0.0651	551.0	9.918	20.09	11.44	1.44
	91.84	22.91	67.50	0.00	0.0635	11.61	511.1	423.57	0.0652	552.5	9.945	20.15	11.48	1.44
	92.84	22.91	67.50	0.00	0.0635	11.61	510.7	423.26	0.0651	550.9	9.916	20.09	11.43	1.44
	93.84	22.91	67.52	0.00	0.0634	11.60	510.6	423.01	0.0651	551.0	9.918	20.09	11.44	1.44
	94.84	22.91	67.50	0.00	0.0636	11.61	511.0	423.48	0.0652	551.6	9.929	20.12	11.45	1.44
	95.84	22.91	67.50	0.00	0.0636	11.62	511.3	423.74	0.0652	551.7	9.931	20.12	11.46	1.44
	96.84	22.91	67.50	0.00	0.0636	11.62	511.1	423.61	0.0651	551.3	9.923	20.10	11.45	1.44
	97.84	22.91	67.50	0.00	0.0635	11.62	511.3	423.73	0.0652	552.1	9.937	20.13	11.47	1.44
	98.86	22.91	67.50	0.00	0.0636	11.63	511.7	424.13	0.0653	553.7	9.966	20.19	11.51	1.44
	99.84	22.91	67.52	0.00	0.0636	11.65	512.4	424.57	0.0655	558.0	10.044	20.34	11.63	1.44
	100.86	22.91	67.50	0.00	0.0637	11.63	511.6	424.06	0.0653	554.1	9.974	20.21	11.52	1.44
	101.84	22.91	67.50	0.00	0.0636	11.63	511.9	424.26	0.0653	552.9	9.951	20.16	11.49	1.44
	102.84	22.91	67.50	0.00	0.0637	11.63	511.9	424.25	0.0652	552.8	9.951	20.16	11.49	1.44
	103.84	22.91	67.47	0.00	0.0636	11.65	512.4	424.85	0.0653	553.9	9.970	20.21	11.52	1.44
	104.84	22.91	67.50	0.00	0.0638	11.64	512.3	424.57	0.0654	554.0	9.971	20.20	11.52	1.44
	105.84	22.91	67.50	0.00	0.0636	11.64	512.2	424.53	0.0654	554.3	9.978	20.21	11.53	1.44
	106.84	22.91	67.50	0.00	0.0637	11.65	512.8	424.99	0.0654	554.8	9.987	20.23	11.54	1.44
	107.84	22.91	67.50	0.00	0.0637	11.66	512.9	425.05	0.0654	554.7	9.985	20.23	11.54	1.44
	108.84	22.91	67.52	0.00	0.0637	11.65	512.7	424.77	0.0654	554.6	9.982	20.22	11.53	1.44
	109.84	22.91	67.52	0.00	0.0638	11.67	513.3	425.24	0.0656	556.4	10.015	20.28	11.58	1.44
	110.84	22.91	67.50	0.00	0.0637	11.67	513.6	425.70	0.0657	557.5	10.034	20.33	11.61	1.44
	111.84	22.91	67.52	0.00	0.0637	11.66	513.2	425.19	0.0655	555.9	10.006	20.27	11.57	1.44
	112.84	22.91	67.50	0.00	0.0638	11.66	513.2	425.33	0.0655	555.5	9.999	20.26	11.56	1.44
	113.84	22.91	67.52	0.00	0.0638	11.66	513.2	425.17	0.0654	555.1	9.991	20.23	11.55	1.44
	114.84	22.91	67.52	0.00	0.0637	11.67	513.3	425.30	0.0655	555.2	9.994	20.24	11.55	1.44
	115.86	22.91	67.50	0.00	0.0637	11.68	513.7	425.78	0.0655	557.4	10.034	20.33	11.61	1.44
	116.86	22.91	67.50	0.00	0.0637	11.68	513.8	425.83	0.0655	556.4	10.015	20.29	11.58	1.44
	117.92	22.89	67.47	0.00	0.0638	11.68	513.8	425.94	0.0654	555.4	9.998	20.26	11.56	1.44
	118.86	22.91	67.50	0.00	0.0639	11.68	513.8	425.83	0.0656	555.7	10.002	20.26	11.56	1.44
	119.86	22.91	67.50	0.00	0.0639	11.68	514.1	426.06	0.0656	556.0	10.008	20.28	11.57	1.44
	120.86	22.91	67.50	0.00	0.0639	11.69	514.3	426.29	0.0655	557.0	10.025	20.31	11.60	1.44
	121.86	22.91	67.50	0.00	0.0640	11.69	514.5	426.43	0.0656	556.9	10.024	20.31	11.60	1.44
	122.84	22.91	67.50	0.00	0.0639	11.69	514.4	426.38	0.0655	556.9	10.024	20.31	11.60	1.44
	123.86	22.91	67.47	0.00	0.0639	11.69	514.5	426.56	0.0656	556.3	10.014	20.29	11.58	1.44
