Mar 15 2018 at 10:07:08
Frequency: 1.00Hz.
CO2
Zero:  Value:0.91  Date:May 19 2009 at 7:53:33 AM
Span:  Value:1.00  Date:May 19 2009 at 8:00:06 AM
H2O
Zero:  Value:0.77  Date:May 19 2009 at 7:54:01 AM
Span:  Value:1.01  Date:28 Jun 2004	 at 08:29:05	
Light fog and low PAR, light rain, redoing for high par
	Relative Time	Temperature	Pressure	Aux Input	CO2 Absorptance	CO2 mmol/m3	CO2 mg/m3	CO2 umol/mol	H2O Absorptance	H2O mmol/m3	H2O g/m3	H2O mmol/mol	H2O(°C)	Cooler Voltage
	0.31	22.60	67.52	0.00	0.0620	11.24	494.5	409.24	0.0649	547.3	9.851	19.93	11.32	1.41
	1.23	22.60	67.52	0.00	0.0619	11.22	493.7	408.56	0.0651	549.9	9.897	20.02	11.39	1.41
	2.25	22.58	67.52	0.00	0.0618	11.22	493.8	408.63	0.0652	551.9	9.934	20.10	11.45	1.41
	3.23	22.58	67.52	0.00	0.0618	11.21	493.3	408.21	0.0655	556.0	10.007	20.24	11.56	1.41
	4.25	22.56	67.50	0.00	0.0618	11.21	493.2	408.23	0.0657	557.6	10.036	20.31	11.60	1.41
	5.23	22.58	67.52	0.00	0.0618	11.20	492.7	407.76	0.0656	556.7	10.020	20.27	11.58	1.41
	6.25	22.58	67.52	0.00	0.0617	11.19	492.3	407.40	0.0659	561.2	10.101	20.43	11.70	1.41
	7.23	22.58	67.52	0.00	0.0617	11.18	492.0	407.15	0.0661	563.0	10.134	20.50	11.75	1.41
	8.25	22.58	67.47	0.00	0.0615	11.16	490.9	406.54	0.0662	565.4	10.177	20.60	11.81	1.41
	9.23	22.58	67.50	0.00	0.0616	11.14	490.1	405.76	0.0662	565.9	10.186	20.61	11.82	1.41
	10.25	22.58	67.50	0.00	0.0614	11.14	490.0	405.62	0.0666	568.9	10.241	20.72	11.90	1.41
	11.23	22.60	67.50	0.00	0.0616	11.16	491.1	406.63	0.0666	568.8	10.238	20.72	11.90	1.41
	12.25	22.61	67.50	0.00	0.0615	11.14	490.1	405.82	0.0670	573.1	10.316	20.88	12.02	1.41
	13.23	22.60	67.50	0.00	0.0614	11.15	490.4	406.01	0.0674	571.8	10.293	20.83	11.98	1.41
	14.25	22.58	67.52	0.00	0.0614	11.11	489.0	404.69	0.0673	578.1	10.406	21.05	12.15	1.41
	15.31	22.60	67.52	0.00	0.0615	11.14	490.1	405.63	0.0671	574.1	10.334	20.91	12.04	1.41
	16.23	22.60	67.50	0.00	0.0614	11.12	489.3	405.09	0.0674	577.5	10.395	21.04	12.13	1.41
	17.31	22.60	67.52	0.00	0.0613	11.10	488.5	404.27	0.0674	580.7	10.453	21.15	12.22	1.41
	18.23	22.60	67.52	0.00	0.0614	11.10	488.4	404.19	0.0680	584.4	10.520	21.28	12.31	1.41
	19.25	22.60	67.48	0.00	0.0613	11.11	488.6	404.69	0.0681	584.6	10.523	21.30	12.32	1.41
	20.23	22.58	67.52	0.00	0.0613	11.09	488.0	403.86	0.0678	586.9	10.563	21.37	12.38	1.41
	21.25	22.56	67.50	0.00	0.0611	11.05	486.4	402.65	0.0687	593.1	10.676	21.60	12.54	1.41
	22.23	22.60	67.47	0.00	0.0613	11.09	487.9	404.09	0.0683	587.5	10.574	21.41	12.39	1.41
	23.25	22.60	67.52	0.00	0.0612	11.05	486.3	402.49	0.0688	597.5	10.755	21.76	12.65	1.41
	24.23	22.60	67.50	0.00	0.0610	11.05	486.4	402.70	0.0691	595.0	10.711	21.68	12.59	1.41
	25.25	22.60	67.52	250.00	0.0612	11.05	486.3	402.50	0.0687	596.3	10.733	21.71	12.62	1.41
	26.23	22.58	67.50	0.00	0.0612	11.05	486.4	402.68	0.0686	595.5	10.718	21.69	12.60	1.41
	27.25	22.60	67.50	0.00	0.0612	11.08	487.7	403.76	0.0687	593.9	10.690	21.64	12.56	1.41
	28.23	22.60	67.52	0.00	0.0612	11.07	487.1	403.16	0.0688	594.9	10.709	21.66	12.58	1.41
	29.25	22.60	67.52	0.00	0.0612	11.07	487.0	403.08	0.0689	595.8	10.725	21.70	12.61	1.41
	30.23	22.58	67.52	0.00	0.0611	11.05	486.4	402.49	0.0693	599.6	10.793	21.83	12.70	1.41
	31.25	22.60	67.52	0.00	0.0611	11.03	485.5	401.77	0.0695	605.3	10.895	22.04	12.85	1.42
	32.31	22.58	67.50	0.00	0.0611	11.05	486.0	402.32	0.0697	605.4	10.897	22.05	12.85	1.41
	33.23	22.58	67.50	0.00	0.0610	11.04	485.9	402.30	0.0697	604.8	10.887	22.03	12.84	1.41
	34.31	22.60	67.50	0.00	0.0611	11.04	485.7	402.12	0.0694	606.1	10.909	22.08	12.87	1.41
	35.23	22.58	67.50	0.00	0.0610	11.02	484.8	401.33	0.0700	610.7	10.992	22.24	12.98	1.41
	36.25	22.60	67.50	0.00	0.0610	11.04	485.7	402.10	0.0700	608.0	10.944	22.15	12.92	1.41
	37.23	22.60	67.50	0.00	0.0610	11.03	485.2	401.74	0.0700	610.5	10.989	22.24	12.98	1.42
	38.25	22.56	67.50	0.00	0.0610	11.03	485.4	401.82	0.0701	610.4	10.987	22.23	12.98	1.41
	39.23	22.60	67.50	0.00	0.0610	11.01	484.4	401.03	0.0703	614.1	11.053	22.37	13.07	1.41
	40.25	22.60	67.52	0.00	0.0609	10.99	483.7	400.37	0.0705	617.8	11.120	22.50	13.16	1.42
	41.23	22.60	67.52	0.00	0.0609	10.99	483.4	400.06	0.0706	621.1	11.179	22.62	13.24	1.41
	42.25	22.58	67.52	0.00	0.0610	10.99	483.7	400.30	0.0703	618.8	11.138	22.53	13.19	1.42
	43.23	22.58	67.52	0.00	0.0609	11.00	483.8	400.42	0.0704	617.4	11.114	22.48	13.15	1.42
	44.25	22.60	67.50	0.00	0.0609	10.99	483.5	400.28	0.0708	619.9	11.158	22.58	13.21	1.41
	45.23	22.60	67.50	0.00	0.0608	10.95	481.8	398.90	0.0714	629.3	11.327	22.92	13.44	1.41
	46.25	22.60	67.52	0.00	0.0608	10.97	482.7	399.52	0.0710	622.4	11.204	22.67	13.28	1.41
	47.23	22.62	67.50	0.00	0.0608	10.96	482.1	399.17	0.0711	626.5	11.276	22.82	13.38	1.41
	48.25	22.60	67.50	0.00	0.0606	10.93	480.8	398.06	0.0715	629.6	11.332	22.93	13.45	1.42
	49.31	22.60	67.50	0.00	0.0606	10.91	480.2	397.57	0.0715	629.7	11.335	22.94	13.45	1.42
	50.25	22.60	67.50	0.00	0.0606	10.92	480.3	397.68	0.0712	627.4	11.293	22.86	13.40	1.42
	51.25	22.58	67.52	250.00	0.0605	10.89	479.4	396.71	0.0715	630.5	11.348	22.96	13.47	1.42
	52.23	22.61	67.50	0.00	0.0605	10.91	480.0	397.38	0.0716	630.3	11.345	22.96	13.47	1.42
	53.25	22.60	67.50	0.00	0.0603	10.86	478.0	395.78	0.0719	636.4	11.455	23.18	13.62	1.42
	54.23	22.60	67.50	0.00	0.0604	10.86	477.9	395.69	0.0714	629.8	11.337	22.94	13.46	1.42
	55.25	22.62	67.52	0.00	0.0601	10.84	477.0	394.79	0.0718	633.9	11.409	23.08	13.56	1.42
	56.23	22.60	67.50	0.00	0.0601	10.79	474.7	393.01	0.0721	637.5	11.475	23.22	13.64	1.42
	57.25	22.60	67.52	0.00	0.0600	10.80	475.0	393.12	0.0717	631.9	11.374	23.01	13.51	1.42
	58.23	22.60	67.52	0.00	0.0598	10.73	472.1	390.76	0.0717	635.6	11.441	23.15	13.60	1.42
	59.25	22.60	67.50	0.00	0.0597	10.73	472.1	390.85	0.0717	635.0	11.430	23.13	13.58	1.42
	60.23	22.59	67.50	0.00	0.0595	10.67	469.6	388.78	0.0719	633.8	11.409	23.09	13.55	1.42
	61.25	22.63	67.52	0.00	0.0593	10.63	467.9	387.27	0.0718	635.0	11.430	23.13	13.58	1.42
	62.23	22.61	67.50	0.00	0.0591	10.60	466.5	386.27	0.0719	633.6	11.404	23.08	13.55	1.42
	63.25	22.60	67.50	0.00	0.0589	10.53	463.4	383.66	0.0720	638.6	11.495	23.26	13.67	1.42
	64.23	22.60	67.52	0.00	0.0586	10.45	460.0	380.70	0.0722	641.8	11.552	23.37	13.75	1.42
	65.25	22.60	67.52	0.00	0.0582	10.40	457.4	378.55	0.0721	638.6	11.495	23.26	13.67	1.42
	66.23	22.60	67.50	0.00	0.0580	10.34	454.9	376.61	0.0721	634.7	11.424	23.12	13.57	1.42
	67.25	22.61	67.47	0.00	0.0576	10.27	451.7	374.11	0.0719	634.1	11.415	23.11	13.56	1.42
	68.31	22.58	67.47	0.00	0.0572	10.15	446.5	369.80	0.0720	639.9	11.518	23.32	13.70	1.42
	69.23	22.62	67.52	0.00	0.0567	10.06	442.8	366.51	0.0720	637.9	11.482	23.23	13.65	1.42
	70.23	22.60	67.52	0.00	0.0563	9.97	438.8	363.18	0.0719	636.2	11.452	23.17	13.61	1.42
	71.23	22.61	67.52	0.00	0.0559	9.88	434.6	359.70	0.0719	636.0	11.448	23.16	13.61	1.42
	72.25	22.60	67.52	0.00	0.0553	9.76	429.3	355.26	0.0722	638.7	11.496	23.26	13.67	1.42
	73.23	22.60	67.50	0.00	0.0549	9.66	425.1	351.93	0.0718	634.5	11.422	23.12	13.57	1.42
