Mar 15 2018 at 7:33:25
Frequency: 1.00Hz.
CO2
Zero:  Value:0.91  Date:May 19 2009 at 7:53:33 AM
Span:  Value:1.00  Date:May 19 2009 at 8:00:06 AM
H2O
Zero:  Value:0.77  Date:May 19 2009 at 7:54:01 AM
Span:  Value:1.01  Date:28 Jun 2004	 at 08:29:05	
Clear, high PAR, light wind
	Relative Time	Temperature	Pressure	Aux Input	CO2 Absorptance	CO2 mmol/m3	CO2 mg/m3	CO2 umol/mol	H2O Absorptance	H2O mmol/m3	H2O g/m3	H2O mmol/mol	H2O(°C)	Cooler Voltage
	0.14	19.90	67.86	0.00	0.0637	11.62	511.5	417.34	0.0700	615.7	11.083	22.11	12.97	1.48
	1.14	19.90	67.83	0.00	0.0637	11.64	512.0	417.90	0.0704	612.7	11.029	22.01	12.90	1.48
	2.14	19.91	67.86	0.00	0.0637	11.63	511.9	417.68	0.0704	620.0	11.159	22.26	13.08	1.48
	3.14	19.89	67.86	0.00	0.0638	11.64	512.0	417.76	0.0703	616.6	11.099	22.14	12.99	1.48
	4.14	19.91	67.86	0.00	0.0637	11.64	512.0	417.80	0.0707	619.2	11.146	22.23	13.06	1.49
	5.14	19.91	67.88	0.00	0.0638	11.64	512.1	417.73	0.0708	620.1	11.162	22.26	13.08	1.48
	6.14	19.89	67.86	0.00	0.0637	11.64	512.1	417.84	0.0712	624.6	11.243	22.43	13.19	1.48
	7.14	19.91	67.86	0.00	0.0638	11.64	512.2	417.95	0.0713	625.4	11.257	22.45	13.21	1.48
	8.14	19.91	67.86	0.00	0.0637	11.64	512.2	418.00	0.0711	623.5	11.222	22.39	13.16	1.48
	9.14	19.93	67.86	0.00	0.0637	11.64	512.0	417.84	0.0719	629.0	11.322	22.59	13.30	1.48
	10.16	19.93	67.86	0.00	0.0637	11.64	512.0	417.84	0.0714	630.4	11.347	22.63	13.33	1.49
	11.14	19.93	67.89	0.00	0.0637	11.64	512.2	417.81	0.0718	631.0	11.359	22.65	13.35	1.48
	12.16	19.93	67.86	0.00	0.0637	11.63	511.8	417.68	0.0716	631.5	11.367	22.68	13.36	1.48
	13.14	19.93	67.86	0.00	0.0637	11.64	512.2	417.97	0.0718	632.4	11.383	22.71	13.38	1.48
	14.16	19.95	67.86	0.00	0.0637	11.64	512.3	418.09	0.0720	635.1	11.432	22.81	13.45	1.48
	15.14	19.95	67.86	0.00	0.0637	11.65	512.4	418.16	0.0720	635.8	11.444	22.83	13.46	1.48
	16.16	19.95	67.86	0.00	0.0638	11.65	512.5	418.26	0.0722	637.5	11.474	22.89	13.50	1.48
	17.14	19.95	67.86	0.00	0.0637	11.63	511.9	417.76	0.0722	639.3	11.508	22.96	13.55	1.48
	18.16	19.96	67.86	0.00	0.0638	11.64	512.3	418.13	0.0725	641.4	11.545	23.03	13.60	1.48
	19.14	19.93	67.86	0.00	0.0637	11.64	512.3	418.05	0.0725	641.5	11.546	23.03	13.60	1.48
	20.14	19.95	67.86	0.00	0.0638	11.65	512.6	418.37	0.0726	642.4	11.562	23.07	13.62	1.48
	21.14	19.95	67.84	0.00	0.0639	11.65	512.8	418.62	0.0727	643.2	11.578	23.11	13.64	1.48
	22.14	19.95	67.89	0.00	0.0638	11.65	512.5	418.13	0.0727	644.0	11.591	23.11	13.66	1.49
	23.14	19.96	67.86	0.00	0.0638	11.65	512.6	418.40	0.0729	646.0	11.629	23.20	13.71	1.48
	24.14	19.96	67.86	0.00	0.0638	11.65	512.7	418.47	0.0730	646.0	11.628	23.20	13.71	1.48
	25.14	19.96	67.86	0.00	0.0638	11.65	512.8	418.52	0.0729	647.1	11.649	23.24	13.74	1.48
	26.14	19.96	67.86	0.00	0.0638	11.66	512.8	418.54	0.0730	648.1	11.666	23.28	13.76	1.48
	27.14	19.96	67.86	0.00	0.0638	11.66	513.2	418.89	0.0731	651.1	11.720	23.38	13.83	1.48
	28.14	19.98	67.83	0.00	0.0638	11.66	512.8	418.74	0.0733	652.0	11.736	23.42	13.85	1.48
	29.14	19.94	67.86	0.00	0.0638	11.66	513.0	418.64	0.0734	652.2	11.739	23.42	13.85	1.48
	30.14	19.98	67.86	0.00	0.0639	11.66	513.1	418.77	0.0734	652.6	11.746	23.44	13.87	1.48
	31.14	19.98	67.86	0.00	0.0639	11.66	513.2	418.86	0.0735	653.2	11.758	23.46	13.88	1.48
	32.14	19.98	67.89	0.00	0.0639	11.66	513.2	418.69	0.0736	654.5	11.781	23.49	13.91	1.48
	33.14	19.98	67.86	0.00	0.0639	11.67	513.6	419.17	0.0736	657.0	11.825	23.59	13.97	1.49
	34.14	19.98	67.86	0.00	0.0639	11.67	513.5	419.15	0.0738	658.1	11.847	23.64	14.00	1.49
	35.14	20.00	67.86	0.00	0.0639	11.68	513.8	419.40	0.0738	659.9	11.879	23.70	14.04	1.48
	36.14	20.00	67.88	0.00	0.0639	11.67	513.5	419.00	0.0739	659.6	11.874	23.68	14.03	1.48
	37.22	20.00	67.86	0.00	0.0639	11.68	513.8	419.36	0.0740	660.1	11.882	23.71	14.04	1.48
	38.14	20.00	67.86	0.00	0.0639	11.67	513.7	419.28	0.0743	664.8	11.966	23.88	14.15	1.48
	39.16	20.00	67.86	0.00	0.0639	11.68	513.8	419.39	0.0740	661.2	11.901	23.75	14.07	1.49
	40.14	20.01	67.86	0.00	0.0639	11.68	513.8	419.43	0.0744	667.0	12.007	23.96	14.21	1.49
	41.16	20.01	67.86	250.00	0.0640	11.68	514.0	419.59	0.0746	667.0	12.006	23.96	14.21	1.48
	42.14	20.01	67.86	0.00	0.0640	11.69	514.3	419.80	0.0744	665.9	11.985	23.92	14.18	1.48
	43.16	20.01	67.86	0.00	0.0639	11.68	514.1	419.62	0.0745	667.3	12.011	23.97	14.21	1.48
	44.14	20.01	67.86	0.00	0.0640	11.69	514.5	419.97	0.0745	671.3	12.083	24.11	14.30	1.49
	45.16	20.03	67.86	0.00	0.0639	11.70	514.7	420.17	0.0746	668.6	12.034	24.01	14.24	1.49
	46.14	20.03	67.89	0.00	0.0640	11.70	514.8	420.13	0.0747	670.3	12.066	24.07	14.28	1.48
	47.16	20.03	67.86	0.00	0.0640	11.71	515.1	420.49	0.0748	670.7	12.072	24.09	14.29	1.48
	48.14	20.03	67.86	0.00	0.0640	11.70	514.9	420.35	0.0747	670.7	12.072	24.09	14.29	1.49
	49.14	20.05	67.86	0.00	0.0640	11.71	515.3	420.71	0.0750	673.1	12.116	24.18	14.35	1.48
	50.14	20.03	67.86	0.00	0.0641	11.71	515.1	420.50	0.0749	673.3	12.119	24.18	14.35	1.49
	51.14	19.99	67.86	0.00	0.0641	11.71	515.3	420.64	0.0750	674.0	12.132	24.21	14.37	1.49
	52.14	20.06	67.89	0.00	0.0641	11.72	515.8	420.94	0.0751	675.3	12.156	24.25	14.40	1.49
	53.14	20.05	67.86	0.00	0.0642	11.73	516.1	421.31	0.0753	676.6	12.180	24.31	14.43	1.49
	54.14	20.05	67.86	0.00	0.0641	11.72	515.7	421.00	0.0753	679.5	12.232	24.41	14.49	1.49
	55.14	20.03	67.86	0.00	0.0641	11.72	515.8	421.06	0.0752	676.7	12.181	24.31	14.43	1.49
	56.14	20.05	67.86	0.00	0.0640	11.72	515.5	420.88	0.0754	680.5	12.249	24.44	14.52	1.49
	57.14	20.05	67.84	0.00	0.0642	11.72	515.7	421.17	0.0753	678.1	12.205	24.37	14.46	1.49
	58.14	20.06	67.86	0.00	0.0642	11.73	516.2	421.41	0.0754	679.6	12.233	24.41	14.50	1.49
	59.14	20.06	67.84	0.00	0.0641	11.73	516.3	421.63	0.0755	680.5	12.248	24.45	14.52	1.49
	60.14	20.06	67.86	0.00	0.0641	11.74	516.5	421.65	0.0755	680.8	12.254	24.46	14.52	1.49
	61.14	20.06	67.89	0.00	0.0642	11.74	516.4	421.46	0.0757	681.3	12.264	24.47	14.54	1.49
	62.16	20.06	67.86	-250.10	0.0641	11.74	516.6	421.77	0.0756	682.6	12.286	24.52	14.56	1.49
	63.16	20.04	67.86	-250.10	0.0642	11.74	516.5	421.69	0.0757	682.4	12.284	24.51	14.56	1.49
	64.22	20.08	67.89	0.00	0.0641	11.73	516.3	421.41	0.0757	683.6	12.305	24.55	14.59	1.49
	65.14	20.08	67.89	0.00	0.0641	11.75	516.9	421.86	0.0757	684.2	12.315	24.57	14.60	1.49
	66.16	20.10	67.86	0.00	0.0643	11.75	517.1	422.24	0.0759	685.4	12.337	24.62	14.63	1.49
	67.14	20.08	67.86	0.00	0.0642	11.75	517.0	422.11	0.0759	685.3	12.336	24.62	14.63	1.49
	68.16	20.10	67.86	0.00	0.0643	11.76	517.3	422.40	0.0760	686.0	12.348	24.65	14.64	1.49
	69.14	20.10	67.86	0.00	0.0642	11.76	517.4	422.48	0.0760	687.2	12.370	24.69	14.67	1.49
	70.16	20.10	67.86	0.00	0.0643	11.77	517.7	422.73	0.0761	688.8	12.399	24.75	14.71	1.49
	71.14	20.10	67.86	0.00	0.0643	11.78	518.1	423.05	0.0762	689.9	12.418	24.79	14.73	1.49
	72.16	20.11	67.86	250.00	0.0643	11.76	517.6	422.70	0.0762	689.2	12.405	24.76	14.72	1.49
	73.14	20.11	67.91	0.00	0.0642	11.76	517.4	422.18	0.0762	690.4	12.426	24.78	14.74	1.49
	74.16	20.10	67.91	0.00	0.0643	11.77	518.0	422.62	0.0762	690.1	12.422	24.78	14.74	1.49
	75.14	20.10	67.86	0.00	0.0643	11.78	518.2	423.10	0.0763	691.1	12.439	24.83	14.76	1.49
	76.16	20.10	67.86	0.00	0.0644	11.78	518.2	423.11	0.0764	691.9	12.454	24.86	14.78	1.49
	77.14	20.11	67.84	0.00	0.0643	11.79	518.5	423.58	0.0765	693.2	12.478	24.92	14.81	1.49
	78.14	20.11	67.86	0.00	0.0643	11.78	518.3	423.26	0.0764	692.3	12.461	24.87	14.79	1.49
	79.14	20.13	67.86	0.00	0.0644	11.79	518.6	423.51	0.0764	692.9	12.472	24.90	14.80	1.49
	80.14	20.11	67.86	0.00	0.0644	11.79	518.6	423.52	0.0765	693.8	12.489	24.93	14.82	1.49
	81.14	20.11	67.86	0.00	0.0643	11.78	518.5	423.36	0.0765	693.7	12.487	24.92	14.82	1.49
	82.14	20.13	67.86	0.00	0.0644	11.79	518.7	423.58	0.0766	694.5	12.500	24.95	14.84	1.49
	83.14	20.13	67.81	0.00	0.0644	11.79	518.6	423.82	0.0766	694.6	12.503	24.98	14.84	1.49
	84.14	20.13	67.83	0.00	0.0644	11.80	519.0	424.00	0.0766	695.8	12.525	25.01	14.87	1.49
	85.14	20.13	67.86	0.00	0.0644	11.80	519.1	423.88	0.0767	696.4	12.536	25.02	14.88	1.49
	86.14	20.15	67.88	0.00	0.0644	11.80	519.2	423.85	0.0767	697.0	12.547	25.04	14.89	1.49
	87.22	20.15	67.88	0.00	0.0644	11.81	519.5	424.10	0.0768	698.7	12.577	25.10	14.93	1.49
	88.14	20.16	67.86	0.00	0.0645	11.80	519.1	423.99	0.0769	697.8	12.561	25.08	14.91	1.49
	89.22	20.15	67.86	0.00	0.0645	11.81	519.6	424.37	0.0769	698.5	12.574	25.10	14.93	1.49
	90.14	20.17	67.88	0.00	0.0645	11.82	519.9	424.46	0.0770	699.4	12.589	25.12	14.95	1.49
	91.22	20.15	67.86	0.00	0.0645	11.81	519.7	424.38	0.0769	699.3	12.587	25.13	14.94	1.49
	92.14	20.15	67.88	0.00	0.0645	11.81	519.7	424.31	0.0771	701.1	12.619	25.18	14.98	1.49
	93.16	20.15	67.86	0.00	0.0645	11.82	520.0	424.64	0.0770	701.3	12.623	25.20	14.99	1.49
	94.14	20.16	67.86	0.00	0.0645	11.82	520.2	424.86	0.0770	701.1	12.621	25.20	14.99	1.49
	95.16	20.16	67.88	0.00	0.0645	11.83	520.4	424.86	0.0771	701.5	12.627	25.20	14.99	1.49
	96.14	20.18	67.86	0.00	0.0646	11.84	520.8	425.33	0.0773	703.3	12.660	25.28	15.04	1.49
	97.16	20.16	67.86	0.00	0.0645	11.83	520.7	425.22	0.0772	703.1	12.656	25.27	15.03	1.49
	98.14	20.18	67.86	0.00	0.0646	11.83	520.5	425.09	0.0772	703.5	12.664	25.28	15.04	1.49
	99.16	20.18	67.86	0.00	0.0646	11.84	520.8	425.35	0.0773	704.5	12.680	25.32	15.06	1.49
	100.14	20.18	67.89	0.00	0.0646	11.83	520.7	425.13	0.0773	705.1	12.691	25.33	15.07	1.49
	101.16	20.18	67.86	0.00	0.0646	11.84	521.0	425.56	0.0774	705.4	12.697	25.35	15.08	1.49
	102.14	20.16	67.86	0.00	0.0645	11.83	520.7	425.24	0.0774	705.2	12.693	25.34	15.07	1.49
	103.16	20.18	67.86	0.00	0.0646	11.83	520.7	425.29	0.0773	704.8	12.686	25.33	15.07	1.49
	104.14	20.20	67.86	0.00	0.0646	11.84	521.1	425.63	0.0775	706.5	12.716	25.39	15.10	1.49
	105.16	20.20	67.86	0.00	0.0646	11.85	521.5	425.96	0.0775	708.6	12.756	25.47	15.15	1.49
	106.14	20.22	67.86	0.00	0.0647	11.85	521.3	425.79	0.0776	707.7	12.739	25.44	15.13	1.49
	107.16	20.20	67.83	0.00	0.0646	11.85	521.4	426.03	0.0775	707.4	12.734	25.43	15.13	1.49
	108.14	20.18	67.86	0.00	0.0646	11.85	521.2	425.68	0.0775	708.1	12.745	25.45	15.14	1.49
	109.14	20.20	67.86	0.00	0.0646	11.86	521.7	426.16	0.0776	709.6	12.773	25.50	15.17	1.49
	110.14	20.21	67.86	0.00	0.0646	11.85	521.5	425.98	0.0777	711.0	12.799	25.56	15.21	1.49
	111.14	20.21	67.86	0.00	0.0646	11.86	521.7	426.18	0.0778	711.8	12.812	25.58	15.22	1.49
	112.14	20.21	67.86	0.00	0.0647	11.86	521.6	426.10	0.0777	709.8	12.777	25.51	15.18	1.49
	113.14	20.20	67.86	0.00	0.0647	11.85	521.5	425.99	0.0779	710.8	12.794	25.55	15.20	1.49
	114.16	20.21	67.86	0.00	0.0647	11.86	521.9	426.27	0.0779	712.6	12.827	25.61	15.24	1.49
	115.14	20.21	67.86	0.00	0.0647	11.87	522.1	426.46	0.0779	712.3	12.821	25.60	15.23	1.49
