Mar 12 2018 at 12:46:34
Frequency: 1.00Hz.
CO2
Zero:  Value:0.91  Date:May 19 2009 at 7:53:33 AM
Span:  Value:1.00  Date:May 19 2009 at 8:00:06 AM
H2O
Zero:  Value:0.77  Date:May 19 2009 at 7:54:01 AM
Span:  Value:1.01  Date:28 Jun 2004	 at 08:29:05	
Casper breathing at end of previous ambient measure
	Relative Time	Temperature	Pressure	Aux Input	CO2 Absorptance	CO2 mmol/m3	CO2 mg/m3	CO2 umol/mol	H2O Absorptance	H2O mmol/m3	H2O g/m3	H2O mmol/mol	H2O(°C)	Cooler Voltage
	0.02	29.86	70.28	0.00	0.0637	11.55	508.1	413.90	0.0616	502.6	9.047	18.02	10.40	1.49
	1.00	29.86	70.23	0.00	0.0638	11.53	507.4	413.65	0.0619	505.0	9.089	18.11	10.47	1.49
	2.02	29.86	70.26	0.00	0.0637	11.53	507.5	413.54	0.0620	506.5	9.118	18.16	10.52	1.49
	3.00	29.84	70.28	0.00	0.0638	11.54	507.7	413.59	0.0619	505.0	9.090	18.10	10.47	1.49
	4.02	29.84	70.26	0.00	0.0638	11.54	507.6	413.60	0.0620	507.1	9.128	18.18	10.54	1.49
	5.00	29.86	70.26	0.00	0.0637	11.54	507.6	413.63	0.0621	508.0	9.143	18.21	10.56	1.49
	6.02	29.86	70.23	0.00	0.0637	11.50	506.2	412.66	0.0624	508.6	9.154	18.24	10.58	1.49
	7.00	29.86	70.26	0.00	0.0637	11.52	506.8	412.98	0.0625	511.7	9.211	18.35	10.67	1.49
	8.02	29.86	70.26	0.00	0.0636	11.51	506.4	412.65	0.0625	512.4	9.222	18.37	10.69	1.49
	9.00	29.86	70.28	0.00	0.0635	11.51	506.4	412.58	0.0631	513.3	9.240	18.40	10.72	1.49
	10.02	29.85	70.28	0.00	0.0636	11.51	506.3	412.47	0.0628	515.5	9.279	18.48	10.78	1.49
	11.00	29.85	70.31	0.00	0.0637	11.52	506.8	412.67	0.0631	517.7	9.318	18.55	10.85	1.49
	12.02	29.82	70.28	0.00	0.0636	11.50	506.2	412.32	0.0632	519.8	9.357	18.63	10.91	1.49
	13.00	29.84	70.28	0.00	0.0637	11.52	506.8	412.81	0.0633	520.9	9.377	18.67	10.94	1.49
	14.02	29.86	70.26	0.00	0.0636	11.50	506.2	412.53	0.0633	520.7	9.372	18.67	10.93	1.49
	15.08	29.85	70.28	0.00	0.0637	11.52	506.7	412.73	0.0633	522.1	9.397	18.71	10.97	1.49
	16.02	29.86	70.28	0.00	0.0637	11.51	506.3	412.45	0.0636	525.3	9.455	18.83	11.07	1.49
	17.00	29.86	70.31	0.00	0.0637	11.50	506.2	412.25	0.0638	526.8	9.482	18.88	11.11	1.49
	18.00	29.86	70.26	0.00	0.0636	11.49	505.7	412.07	0.0639	528.3	9.510	18.94	11.15	1.49
	19.00	29.88	70.26	0.00	0.0636	11.50	505.9	412.33	0.0640	529.4	9.530	18.98	11.19	1.49
	20.00	29.86	70.28	0.00	0.0635	11.48	505.3	411.66	0.0639	529.1	9.523	18.96	11.17	1.49
	21.00	29.84	70.28	0.00	0.0634	11.47	504.6	411.07	0.0642	532.4	9.584	19.08	11.27	1.49
	22.00	29.88	70.28	0.00	0.0637	11.50	506.1	412.32	0.0643	533.1	9.596	19.11	11.29	1.49
	23.08	29.88	70.26	0.00	0.0635	11.49	505.8	412.19	0.0646	535.6	9.642	19.21	11.36	1.49
	24.00	29.86	70.28	0.00	0.0637	11.50	506.1	412.30	0.0646	537.0	9.665	19.25	11.40	1.49
	25.08	29.84	70.28	0.00	0.0636	11.50	506.0	412.15	0.0647	537.1	9.668	19.25	11.40	1.49
	26.00	29.86	70.28	0.00	0.0636	11.49	505.7	411.96	0.0647	537.5	9.676	19.27	11.41	1.49
	27.02	29.88	70.28	0.00	0.0636	11.49	505.7	411.96	0.0650	539.7	9.714	19.35	11.48	1.49
	28.00	29.88	70.28	0.00	0.0636	11.49	505.6	411.93	0.0650	541.5	9.747	19.41	11.53	1.49
	29.02	29.86	70.28	0.00	0.0636	11.50	505.8	412.08	0.0650	541.0	9.738	19.39	11.51	1.49
	30.00	29.84	70.26	0.00	0.0636	11.50	505.9	412.25	0.0652	542.8	9.770	19.46	11.56	1.49
	31.02	29.86	70.26	0.00	0.0636	11.49	505.7	412.16	0.0653	543.9	9.790	19.50	11.59	1.49
	32.00	29.88	70.26	0.00	0.0635	11.48	505.1	411.66	0.0653	544.1	9.793	19.51	11.60	1.49
	33.02	29.81	70.28	0.00	0.0635	11.47	504.6	411.00	0.0655	548.0	9.865	19.64	11.70	1.49
	34.00	29.86	70.28	0.00	0.0636	11.48	505.3	411.65	0.0657	548.1	9.866	19.65	11.71	1.49
	35.02	29.86	70.31	0.00	0.0636	11.49	505.4	411.54	0.0658	550.5	9.908	19.72	11.77	1.49
	36.00	29.86	70.28	0.00	0.0635	11.49	505.4	411.76	0.0658	550.0	9.900	19.71	11.76	1.49
	37.02	29.86	70.28	0.00	0.0636	11.49	505.4	411.76	0.0659	551.5	9.927	19.77	11.80	1.49
	38.00	29.86	70.23	0.00	0.0634	11.47	504.6	411.35	0.0662	553.7	9.966	19.86	11.86	1.49
	39.02	29.86	70.28	0.00	0.0635	11.47	504.9	411.31	0.0660	553.0	9.954	19.82	11.84	1.49
	40.00	29.84	70.28	0.00	0.0635	11.48	505.0	411.38	0.0662	554.2	9.976	19.86	11.88	1.49
	41.00	29.86	70.26	0.00	0.0635	11.47	504.6	411.24	0.0662	555.6	10.000	19.92	11.91	1.49
	42.00	29.85	70.28	0.00	0.0635	11.48	505.0	411.41	0.0665	556.8	10.023	19.96	11.95	1.49
	43.02	29.88	70.31	0.00	0.0635	11.48	505.0	411.28	0.0665	558.0	10.044	19.99	11.98	1.49
	44.00	29.88	70.28	0.00	0.0635	11.47	504.8	411.28	0.0665	559.4	10.069	20.05	12.02	1.49
	45.02	29.86	70.28	0.00	0.0635	11.47	504.6	411.04	0.0668	561.7	10.111	20.13	12.08	1.49
	46.02	29.88	70.26	0.00	0.0635	11.47	504.5	411.20	0.0669	563.3	10.139	20.20	12.12	1.49
	47.02	29.86	70.28	0.00	0.0635	11.47	504.5	410.98	0.0669	563.2	10.138	20.19	12.12	1.49
	48.00	29.84	70.28	0.00	0.0634	11.46	504.1	410.66	0.0670	565.1	10.173	20.26	12.17	1.49
	49.02	29.84	70.28	0.00	0.0634	11.46	504.2	410.70	0.0672	566.1	10.190	20.29	12.20	1.49
	50.00	29.86	70.28	0.00	0.0634	11.45	504.0	410.60	0.0671	567.5	10.216	20.34	12.24	1.49
	51.02	29.86	70.28	0.00	0.0635	11.46	504.1	410.66	0.0674	568.5	10.233	20.38	12.26	1.49
	52.00	29.85	70.28	0.00	0.0633	11.44	503.5	410.17	0.0673	569.4	10.250	20.41	12.29	1.49
	53.02	29.86	70.28	0.00	0.0635	11.45	503.8	410.44	0.0674	569.6	10.253	20.42	12.29	1.49
	54.09	29.86	70.28	0.00	0.0634	11.45	504.0	410.56	0.0676	570.8	10.274	20.46	12.32	1.49
	55.02	29.90	70.28	0.00	0.0634	11.45	503.7	410.37	0.0676	571.5	10.287	20.49	12.35	1.49
	56.02	29.86	70.28	0.00	0.0634	11.43	503.1	409.86	0.0678	573.8	10.329	20.57	12.40	1.49
	57.02	29.84	70.28	0.00	0.0633	11.43	502.8	409.58	0.0680	576.0	10.368	20.64	12.46	1.49
	58.02	29.85	70.28	0.00	0.0633	11.41	502.0	408.93	0.0682	578.6	10.415	20.74	12.53	1.49
	59.02	29.86	70.26	0.00	0.0634	11.43	503.1	409.97	0.0682	577.8	10.400	20.72	12.51	1.49
	60.02	29.88	70.28	0.00	0.0634	11.45	503.7	410.33	0.0682	579.3	10.428	20.77	12.55	1.49
	61.02	29.88	70.28	0.00	0.0634	11.43	503.0	409.83	0.0682	579.4	10.430	20.77	12.55	1.49
	62.02	29.84	70.28	0.00	0.0633	11.42	502.6	409.41	0.0684	580.4	10.447	20.80	12.58	1.49
	63.02	29.85	70.28	0.00	0.0633	11.42	502.5	409.36	0.0685	582.2	10.479	20.87	12.62	1.49
	64.02	29.88	70.28	0.00	0.0633	11.42	502.6	409.44	0.0687	584.2	10.516	20.94	12.68	1.49
	65.02	29.88	70.28	0.00	0.0633	11.42	502.5	409.42	0.0687	583.5	10.503	20.92	12.66	1.49
	66.02	29.84	70.26	0.00	0.0633	11.42	502.4	409.38	0.0688	585.2	10.534	20.98	12.70	1.49
	67.02	29.86	70.26	0.00	0.0633	11.42	502.5	409.48	0.0688	585.6	10.541	21.00	12.71	1.49
	68.02	29.84	70.26	0.00	0.0633	11.42	502.3	409.29	0.0689	586.8	10.562	21.04	12.74	1.49
	69.02	29.84	70.28	0.00	0.0632	11.39	501.3	408.33	0.0691	589.5	10.611	21.13	12.81	1.49
	70.02	29.86	70.28	0.00	0.0632	11.42	502.3	409.21	0.0691	588.9	10.600	21.11	12.80	1.49
	71.02	29.86	70.23	0.00	0.0632	11.41	502.2	409.38	0.0691	589.2	10.605	21.13	12.81	1.49
	72.02	29.84	70.31	0.00	0.0632	11.40	501.6	408.47	0.0690	588.8	10.598	21.10	12.80	1.49
	73.02	29.86	70.28	0.00	0.0632	11.41	502.0	408.93	0.0693	591.6	10.648	21.20	12.87	1.49
	74.02	29.86	70.26	0.00	0.0632	11.41	502.0	409.05	0.0694	594.1	10.693	21.30	12.93	1.49
	75.00	29.84	70.28	0.00	0.0631	11.39	501.2	408.30	0.0695	594.3	10.697	21.30	12.94	1.49
	76.02	29.82	70.28	0.00	0.0633	11.40	501.7	408.67	0.0696	594.6	10.703	21.31	12.95	1.49
	77.00	29.82	70.28	0.00	0.0631	11.38	500.8	407.88	0.0699	599.8	10.796	21.50	13.08	1.49
	78.02	29.92	70.28	0.00	0.0632	11.39	501.1	408.31	0.0697	596.9	10.745	21.40	13.01	1.49
	79.00	29.85	70.28	0.00	0.0632	11.39	501.1	408.20	0.0698	597.6	10.757	21.42	13.02	1.49
	80.00	29.85	70.28	0.00	0.0631	11.38	500.6	407.77	0.0699	600.1	10.802	21.51	13.09	1.49
	81.00	29.86	70.28	0.00	0.0631	11.38	500.7	407.89	0.0700	600.8	10.815	21.54	13.11	1.49
	82.00	29.86	70.26	0.00	0.0631	11.38	500.8	408.08	0.0699	599.3	10.787	21.49	13.07	1.49
	83.08	29.86	70.28	0.00	0.0631	11.38	500.6	407.78	0.0701	600.1	10.801	21.51	13.09	1.49
	84.00	29.85	70.28	0.00	0.0631	11.38	500.6	407.78	0.0702	603.4	10.861	21.63	13.17	1.49
	85.02	29.86	70.28	0.00	0.0630	11.35	499.4	406.88	0.0705	606.5	10.917	21.74	13.25	1.49
	86.00	29.86	70.28	0.00	0.0631	11.37	500.4	407.66	0.0704	605.0	10.890	21.69	13.21	1.49
	87.02	29.85	70.31	0.00	0.0631	11.38	500.7	407.74	0.0705	606.9	10.925	21.75	13.26	1.49
	88.00	29.84	70.28	0.00	0.0631	11.38	500.7	407.85	0.0706	607.1	10.928	21.76	13.26	1.49
	89.02	29.82	70.31	0.00	0.0631	11.37	500.3	407.36	0.0707	608.1	10.945	21.79	13.29	1.49
	90.00	29.85	70.28	0.00	0.0630	11.36	500.0	407.27	0.0706	608.3	10.949	21.80	13.29	1.49
	91.02	29.80	70.26	0.00	0.0630	11.36	499.7	407.17	0.0710	610.6	10.990	21.89	13.35	1.49
	92.00	29.83	70.26	0.00	0.0629	11.35	499.6	407.10	0.0711	612.5	11.025	21.96	13.40	1.49
	93.02	29.83	70.28	0.00	0.0630	11.35	499.5	406.83	0.0710	612.8	11.030	21.96	13.41	1.49
	94.00	29.85	70.26	0.00	0.0630	11.35	499.3	406.92	0.0712	613.5	11.043	22.00	13.43	1.49
	95.02	29.85	70.26	0.00	0.0630	11.36	500.0	407.43	0.0711	613.1	11.036	21.98	13.42	1.49
	96.00	29.85	70.28	0.00	0.0630	11.35	499.5	406.91	0.0712	614.7	11.065	22.03	13.46	1.49
	97.02	29.82	70.31	0.00	0.0630	11.35	499.4	406.59	0.0712	615.9	11.087	22.07	13.48	1.49
	98.00	29.82	70.28	0.00	0.0629	11.34	498.9	406.40	0.0714	617.6	11.117	22.13	13.53	1.49
	99.02	29.83	70.28	0.00	0.0629	11.34	498.9	406.41	0.0715	618.5	11.133	22.17	13.55	1.49
	100.00	29.86	70.31	0.00	0.0630	11.34	499.1	406.41	0.0715	619.1	11.144	22.18	13.57	1.49
	101.02	29.86	70.26	0.00	0.0630	11.35	499.5	407.06	0.0716	619.9	11.158	22.23	13.59	1.49
	102.00	29.82	70.28	0.00	0.0630	11.36	499.9	407.22	0.0715	620.6	11.170	22.24	13.60	1.49
	103.02	29.86	70.28	0.00	0.0630	11.36	499.7	407.07	0.0717	621.1	11.180	22.26	13.62	1.49
	104.00	29.86	70.28	0.00	0.0630	11.35	499.5	406.88	0.0716	621.4	11.185	22.27	13.62	1.49
	105.02	29.86	70.28	0.00	0.0630	11.35	499.6	406.99	0.0718	622.5	11.205	22.31	13.65	1.49
	106.00	29.86	70.26	0.00	0.0630	11.36	499.6	407.17	0.0719	623.8	11.229	22.37	13.68	1.49
	107.02	29.86	70.28	0.00	0.0628	11.32	498.2	405.83	0.0723	626.5	11.276	22.46	13.75	1.49
	108.02	29.84	70.28	0.00	0.0630	11.34	498.9	406.42	0.0721	627.1	11.288	22.48	13.76	1.49
	109.02	29.88	70.31	0.00	0.0629	11.33	498.7	406.15	0.0722	627.8	11.300	22.50	13.78	1.49
	110.02	29.86	70.28	0.00	0.0630	11.34	498.8	406.33	0.0721	627.2	11.289	22.48	13.76	1.49
	111.02	29.86	70.26	0.00	0.0629	11.35	499.2	406.83	0.0722	628.7	11.317	22.54	13.80	1.49
	112.02	29.82	70.28	0.00	0.0629	11.34	498.8	406.28	0.0724	629.6	11.333	22.56	13.82	1.49
	113.02	29.85	70.28	0.00	0.0629	11.33	498.6	406.14	0.0722	629.0	11.323	22.55	13.81	1.50
	114.03	29.85	70.28	0.00	0.0629	11.33	498.7	406.27	0.0723	630.0	11.340	22.58	13.83	1.49
	115.02	29.85	70.31	0.00	0.0629	11.33	498.7	406.09	0.0725	631.0	11.358	22.61	13.86	1.49
	116.03	29.78	70.28	0.00	0.0629	11.33	498.7	406.14	0.0724	630.8	11.354	22.60	13.85	1.49
	117.02	29.83	70.28	0.00	0.0629	11.32	498.1	405.77	0.0726	632.4	11.384	22.67	13.89	1.49
	118.03	29.83	70.28	0.00	0.0629	11.34	498.9	406.40	0.0727	633.0	11.394	22.69	13.91	1.49
	119.02	29.85	70.26	0.00	0.0629	11.33	498.4	406.13	0.0726	633.8	11.409	22.73	13.93	1.50
	120.03	29.83	70.26	0.00	0.0629	11.32	497.9	405.72	0.0728	635.5	11.439	22.78	13.97	1.50
	121.02	29.83	70.31	0.00	0.0627	11.30	497.4	405.01	0.0731	635.8	11.444	22.78	13.97	1.49
	122.03	29.85	70.28	0.00	0.0629	11.33	498.4	405.97	0.0730	636.3	11.453	22.80	13.99	1.49
	123.02	29.83	70.26	0.00	0.0629	11.32	498.2	405.91	0.0731	638.4	11.491	22.89	14.04	1.49
	124.02	29.85	70.28	0.00	0.0628	11.32	498.2	405.86	0.0731	639.1	11.504	22.91	14.06	1.49
	125.02	29.83	70.28	0.00	0.0629	11.33	498.4	405.99	0.0731	638.9	11.500	22.90	14.05	1.50
	128.94	29.83	70.28	0.00	0.0627	11.30	497.3	405.10	0.0734	641.5	11.548	22.99	14.11	1.49
	128.97	29.85	70.28	0.00	0.0628	11.31	497.8	405.47	0.0733	641.5	11.547	22.99	14.11	1.50
	128.97	29.80	70.28	0.00	0.0629	11.32	498.2	405.76	0.0732	640.0	11.520	22.94	14.07	1.50
	129.02	29.80	70.26	0.00	0.0629	11.32	498.2	405.93	0.0732	640.1	11.522	22.95	14.08	1.49
	130.02	29.80	70.28	0.00	0.0628	11.32	498.0	405.57	0.0733	641.9	11.554	23.00	14.12	1.49
	131.02	29.83	70.28	0.00	0.0629	11.33	498.4	405.96	0.0733	642.0	11.557	23.01	14.12	1.50
	132.02	29.83	70.28	0.00	0.0629	11.33	498.3	405.90	0.0735	644.1	11.593	23.08	14.17	1.50
	133.02	29.83	70.31	0.00	0.0628	11.32	498.3	405.74	0.0735	644.1	11.593	23.08	14.17	1.49
	134.02	29.83	70.28	0.00	0.0629	11.33	498.4	405.93	0.0736	644.9	11.608	23.11	14.19	1.50
