Mar 12 2018 at 12:50:31
Frequency: 1.00Hz.
CO2
Zero:  Value:0.91  Date:May 19 2009 at 7:53:33 AM
Span:  Value:1.00  Date:May 19 2009 at 8:00:06 AM
H2O
Zero:  Value:0.77  Date:May 19 2009 at 7:54:01 AM
Span:  Value:1.01  Date:28 Jun 2004	 at 08:29:05	
Partly cloudy, periodical full sun
	Relative Time	Temperature	Pressure	Aux Input	CO2 Absorptance	CO2 mmol/m3	CO2 mg/m3	CO2 umol/mol	H2O Absorptance	H2O mmol/m3	H2O g/m3	H2O mmol/mol	H2O(°C)	Cooler Voltage
	0.25	29.85	70.28	0.00	0.0635	11.47	504.7	411.13	0.0642	531.3	9.563	19.04	11.24	1.50
	1.23	29.87	70.33	0.00	0.0635	11.47	504.6	410.80	0.0645	534.5	9.620	19.14	11.33	1.50
	2.25	29.85	70.28	0.00	0.0635	11.47	504.8	411.17	0.0644	534.7	9.625	19.17	11.33	1.50
	3.33	29.85	70.28	0.00	0.0635	11.47	504.7	411.15	0.0646	537.0	9.666	19.25	11.40	1.50
	4.25	29.85	70.26	0.00	0.0635	11.47	504.8	411.34	0.0647	538.6	9.695	19.31	11.44	1.50
	5.27	29.82	70.28	0.00	0.0635	11.47	504.7	411.10	0.0648	539.2	9.706	19.33	11.46	1.50
	6.25	29.85	70.28	0.00	0.0635	11.47	504.8	411.24	0.0650	540.2	9.723	19.36	11.49	1.50
	7.27	29.87	70.31	0.00	0.0635	11.48	505.0	411.24	0.0651	541.6	9.748	19.41	11.53	1.50
	8.25	29.85	70.28	0.00	0.0635	11.47	504.8	411.19	0.0652	542.2	9.760	19.44	11.54	1.50
	9.27	29.85	70.26	0.00	0.0635	11.48	504.9	411.44	0.0653	544.0	9.792	19.51	11.59	1.50
	10.25	29.85	70.26	0.00	0.0635	11.47	504.9	411.42	0.0655	546.1	9.829	19.58	11.65	1.50
	11.25	29.80	70.26	0.00	0.0636	11.48	505.2	411.59	0.0655	546.1	9.830	19.58	11.65	1.50
	12.25	29.83	70.28	0.00	0.0635	11.49	505.4	411.66	0.0657	549.5	9.890	19.69	11.74	1.50
	13.25	29.85	70.26	0.00	0.0636	11.49	505.7	412.05	0.0660	552.0	9.937	19.79	11.82	1.50
	14.25	29.85	70.28	0.00	0.0635	11.48	505.0	411.36	0.0657	549.2	9.886	19.69	11.74	1.50
	15.25	29.85	70.26	0.00	0.0636	11.48	505.1	411.63	0.0659	550.1	9.902	19.72	11.76	1.50
	16.25	29.85	70.26	0.00	0.0635	11.49	505.6	411.98	0.0659	552.6	9.947	19.81	11.83	1.50
	17.25	29.85	70.28	0.00	0.0635	11.48	505.3	411.59	0.0660	553.0	9.953	19.82	11.84	1.50
	18.25	29.89	70.31	0.00	0.0636	11.49	505.6	411.79	0.0661	553.9	9.970	19.85	11.87	1.50
	19.25	29.86	70.28	0.00	0.0636	11.49	505.5	411.82	0.0663	555.2	9.994	19.90	11.90	1.50
	20.25	29.86	70.26	0.00	0.0636	11.50	505.9	412.24	0.0663	556.3	10.014	19.95	11.93	1.50
	21.25	29.86	70.28	0.00	0.0636	11.49	505.8	412.02	0.0665	557.9	10.041	20.00	11.98	1.50
	22.25	29.86	70.26	0.00	0.0636	11.50	506.0	412.36	0.0665	559.5	10.071	20.06	12.02	1.50
	23.25	29.86	70.28	0.00	0.0637	11.50	505.9	412.15	0.0667	559.8	10.076	20.06	12.03	1.50
	24.25	29.85	70.28	0.00	0.0637	11.50	506.0	412.19	0.0667	561.0	10.098	20.11	12.06	1.50
	25.25	29.86	70.28	0.00	0.0636	11.50	506.2	412.35	0.0668	561.3	10.103	20.12	12.07	1.50
	26.25	29.84	70.26	0.00	0.0636	11.50	506.1	412.38	0.0668	561.8	10.113	20.15	12.08	1.50
	27.25	29.86	70.28	0.00	0.0636	11.51	506.2	412.42	0.0670	565.1	10.171	20.26	12.17	1.50
	28.25	29.86	70.26	0.00	0.0636	11.50	506.1	412.43	0.0671	565.1	10.172	20.26	12.17	1.50
	29.25	29.85	70.28	0.00	0.0636	11.51	506.5	412.63	0.0672	567.3	10.211	20.33	12.23	1.50
	30.25	29.85	70.28	0.00	0.0637	11.51	506.5	412.60	0.0673	567.5	10.215	20.34	12.24	1.50
	31.25	29.85	70.28	0.00	0.0637	11.52	506.7	412.73	0.0673	567.9	10.223	20.36	12.25	1.50
	32.25	29.82	70.26	0.00	0.0637	11.52	507.0	413.12	0.0675	570.2	10.263	20.44	12.31	1.50
	33.25	29.85	70.28	0.00	0.0637	11.52	506.8	412.87	0.0675	571.0	10.278	20.47	12.33	1.50
	34.27	29.85	70.28	0.00	0.0637	11.53	507.1	413.10	0.0676	571.7	10.291	20.49	12.35	1.50
	35.25	29.82	70.28	0.00	0.0637	11.52	507.1	413.03	0.0677	573.0	10.315	20.54	12.38	1.50
	36.27	29.82	70.28	0.00	0.0637	11.53	507.2	413.11	0.0677	573.7	10.327	20.56	12.40	1.50
	37.25	29.86	70.28	0.00	0.0638	11.53	507.4	413.39	0.0680	575.6	10.360	20.63	12.45	1.50
	38.25	29.86	70.28	0.00	0.0638	11.54	507.7	413.62	0.0679	576.1	10.370	20.65	12.46	1.50
	39.25	29.86	70.28	0.00	0.0638	11.54	507.9	413.73	0.0680	576.7	10.380	20.67	12.48	1.50
	40.25	29.84	70.28	0.00	0.0638	11.54	507.7	413.56	0.0681	577.3	10.392	20.69	12.50	1.50
	41.25	29.86	70.26	0.00	0.0639	11.54	507.8	413.84	0.0682	577.8	10.400	20.72	12.51	1.50
	42.25	29.85	70.26	0.00	0.0638	11.54	507.8	413.81	0.0682	578.1	10.406	20.73	12.52	1.50
	43.25	29.84	70.31	0.00	0.0638	11.54	507.9	413.57	0.0682	578.5	10.413	20.73	12.53	1.50
	44.25	29.84	70.28	0.00	0.0638	11.54	507.8	413.69	0.0683	579.5	10.431	20.77	12.55	1.50
	45.25	29.88	70.26	0.00	0.0638	11.55	508.3	414.24	0.0684	581.9	10.475	20.87	12.62	1.50
	46.25	29.86	70.28	0.00	0.0639	11.56	508.5	414.22	0.0685	582.7	10.489	20.89	12.64	1.50
	47.25	29.85	70.31	0.00	0.0639	11.56	508.4	414.03	0.0685	582.7	10.489	20.88	12.64	1.50
	48.25	29.85	70.28	0.00	0.0639	11.56	508.7	414.36	0.0686	584.0	10.512	20.93	12.67	1.50
	49.25	29.85	70.28	0.00	0.0639	11.56	508.7	414.42	0.0686	583.9	10.511	20.93	12.67	1.50
	50.27	29.85	70.26	0.00	0.0639	11.57	509.1	414.87	0.0687	585.7	10.542	21.00	12.72	1.50
	51.25	29.82	70.28	0.00	0.0639	11.57	509.1	414.67	0.0688	585.7	10.542	20.99	12.71	1.50
	52.27	29.87	70.26	0.00	0.0639	11.57	509.1	414.89	0.0689	587.0	10.566	21.05	12.75	1.50
	53.25	29.85	70.26	0.00	0.0640	11.57	509.2	414.94	0.0690	588.3	10.590	21.09	12.78	1.50
	54.27	29.82	70.28	0.00	0.0639	11.58	509.3	414.88	0.0690	588.6	10.594	21.09	12.79	1.50
	55.25	29.85	70.26	0.00	0.0639	11.57	509.2	414.94	0.0690	588.6	10.594	21.10	12.79	1.50
	56.27	29.82	70.26	0.00	0.0639	11.58	509.6	415.23	0.0691	590.2	10.624	21.16	12.83	1.50
	57.25	29.85	70.28	0.00	0.0640	11.58	509.7	415.21	0.0691	590.6	10.631	21.17	12.84	1.50
	58.27	29.82	70.26	0.00	0.0640	11.58	509.5	415.11	0.0692	590.7	10.632	21.18	12.84	1.50
	59.25	29.81	70.28	0.00	0.0640	11.59	509.8	415.28	0.0694	592.2	10.659	21.22	12.88	1.50
	60.27	29.84	70.28	0.00	0.0640	11.59	509.9	415.35	0.0694	592.3	10.662	21.23	12.89	1.50
	61.25	29.86	70.26	0.00	0.0640	11.59	509.9	415.55	0.0693	593.1	10.676	21.27	12.91	1.50
	62.27	29.86	70.26	0.00	0.0640	11.59	510.1	415.68	0.0694	593.8	10.688	21.29	12.93	1.50
	63.33	29.82	70.26	0.00	0.0640	11.60	510.4	415.84	0.0695	595.1	10.713	21.34	12.96	1.50
	64.27	29.86	70.28	0.00	0.0640	11.61	510.6	416.00	0.0696	596.3	10.733	21.37	12.99	1.50
	65.33	29.86	70.28	0.00	0.0641	11.60	510.6	415.97	0.0697	596.3	10.733	21.37	12.99	1.50
	66.27	29.82	70.28	0.00	0.0640	11.61	510.7	415.98	0.0697	597.1	10.747	21.40	13.01	1.50
	67.33	29.86	70.26	0.00	0.0641	11.60	510.6	416.13	0.0697	596.8	10.742	21.40	13.00	1.50
	68.27	29.84	70.26	0.00	0.0641	11.61	510.9	416.31	0.0698	598.3	10.770	21.45	13.04	1.50
	69.33	29.86	70.28	0.00	0.0641	11.61	510.8	416.13	0.0699	598.8	10.778	21.46	13.05	1.50
	70.27	29.86	70.28	0.00	0.0641	11.61	511.0	416.30	0.0699	599.6	10.793	21.49	13.08	1.50
	71.27	29.84	70.26	0.00	0.0642	11.63	511.6	416.92	0.0701	601.3	10.823	21.56	13.12	1.50
	72.27	29.84	70.26	0.00	0.0642	11.62	511.3	416.63	0.0701	601.8	10.833	21.58	13.13	1.50
	73.27	29.86	70.26	0.00	0.0641	11.62	511.2	416.62	0.0700	601.3	10.824	21.56	13.12	1.50
	74.27	29.86	70.26	0.00	0.0642	11.62	511.1	416.53	0.0701	601.6	10.828	21.57	13.13	1.50
	75.27	29.84	70.26	0.00	0.0642	11.62	511.4	416.75	0.0703	603.1	10.856	21.62	13.16	1.50
	76.27	29.89	70.28	0.00	0.0642	11.63	511.5	416.76	0.0702	603.7	10.866	21.64	13.18	1.50
	77.27	29.85	70.26	0.00	0.0642	11.63	511.7	416.95	0.0703	604.6	10.883	21.68	13.20	1.50
	78.27	29.86	70.28	0.00	0.0642	11.63	511.5	416.71	0.0703	604.1	10.875	21.66	13.19	1.50
	79.27	29.86	70.28	0.00	0.0642	11.63	511.7	416.86	0.0703	605.3	10.895	21.70	13.22	1.50
	80.25	29.86	70.26	0.00	0.0643	11.65	512.5	417.63	0.0705	605.9	10.906	21.73	13.24	1.50
	81.27	29.86	70.26	0.00	0.0643	11.64	512.4	417.56	0.0705	607.2	10.930	21.77	13.27	1.50
	82.25	29.86	70.28	0.00	0.0643	11.65	512.4	417.47	0.0706	608.4	10.951	21.81	13.30	1.50
	83.27	29.86	70.28	0.00	0.0643	11.64	512.3	417.31	0.0706	607.4	10.933	21.77	13.27	1.50
	84.25	29.86	70.26	0.00	0.0643	11.65	512.7	417.81	0.0706	608.0	10.944	21.80	13.29	1.50
	85.27	29.86	70.26	0.00	0.0643	11.65	512.8	417.87	0.0707	608.9	10.960	21.83	13.31	1.50
	86.25	29.82	70.26	0.00	0.0643	11.65	512.7	417.77	0.0707	609.2	10.965	21.84	13.32	1.50
	87.27	29.86	70.26	0.00	0.0643	11.66	513.1	418.12	0.0708	610.3	10.985	21.88	13.35	1.50
	88.25	29.86	70.26	0.00	0.0644	11.67	513.4	418.40	0.0709	612.0	11.016	21.95	13.39	1.50
	89.27	29.86	70.26	0.00	0.0644	11.67	513.6	418.58	0.0709	612.8	11.030	21.97	13.41	1.50
	90.25	29.86	70.28	0.00	0.0643	11.67	513.4	418.23	0.0709	612.6	11.027	21.96	13.40	1.50
	91.27	29.86	70.23	0.00	0.0644	11.68	513.7	418.78	0.0710	613.5	11.044	22.01	13.43	1.50
	92.33	29.84	70.26	0.00	0.0643	11.67	513.5	418.43	0.0711	613.6	11.045	22.00	13.43	1.50
	93.27	29.84	70.28	0.00	0.0644	11.67	513.7	418.44	0.0711	614.1	11.054	22.01	13.44	1.50
	94.25	29.81	70.23	0.00	0.0644	11.68	514.0	418.97	0.0712	614.9	11.069	22.05	13.46	1.50
	95.27	29.88	70.26	0.00	0.0644	11.69	514.1	419.04	0.0712	615.5	11.079	22.07	13.48	1.50
	96.33	29.86	70.26	0.00	0.0644	11.68	514.0	418.90	0.0712	615.4	11.077	22.07	13.47	1.50
	97.27	29.91	70.28	0.00	0.0644	11.69	514.3	419.06	0.0713	617.6	11.118	22.14	13.53	1.50
	98.33	29.88	70.28	0.00	0.0645	11.69	514.3	419.03	0.0714	617.5	11.116	22.14	13.53	1.50
	99.27	29.84	70.28	0.00	0.0644	11.69	514.6	419.15	0.0713	617.6	11.117	22.14	13.53	1.50
	100.27	29.88	70.26	0.00	0.0645	11.69	514.6	419.36	0.0715	618.2	11.128	22.17	13.55	1.50
	101.27	29.88	70.28	0.00	0.0645	11.70	514.8	419.41	0.0715	618.2	11.128	22.16	13.55	1.50
	102.27	29.86	70.28	0.00	0.0645	11.71	515.0	419.57	0.0715	619.3	11.148	22.20	13.57	1.50
	103.25	29.84	70.26	0.00	0.0646	11.72	515.7	420.23	0.0716	620.7	11.173	22.26	13.60	1.50
	104.25	29.86	70.26	0.00	0.0646	11.71	515.3	419.93	0.0716	620.6	11.170	22.25	13.60	1.50
	105.25	29.86	70.28	0.00	0.0646	11.72	515.6	420.01	0.0717	621.2	11.182	22.27	13.62	1.50
	106.25	29.84	70.28	0.00	0.0646	11.73	516.0	420.34	0.0718	622.2	11.200	22.30	13.64	1.50
	107.25	29.84	70.28	0.00	0.0646	11.72	515.8	420.16	0.0718	622.3	11.202	22.31	13.64	1.50
	108.25	29.85	70.26	0.00	0.0646	11.73	516.3	420.76	0.0718	623.5	11.223	22.36	13.67	1.50
	109.25	29.86	70.28	0.00	0.0646	11.73	515.9	420.30	0.0718	623.0	11.215	22.33	13.66	1.50
	110.25	29.86	70.28	0.00	0.0646	11.73	516.1	420.45	0.0718	624.2	11.235	22.37	13.69	1.50
	111.25	29.86	70.28	0.00	0.0646	11.73	516.2	420.49	0.0719	624.9	11.247	22.40	13.71	1.50
	112.25	29.86	70.26	0.00	0.0646	11.73	516.3	420.78	0.0719	624.4	11.240	22.39	13.70	1.50
	113.25	29.88	70.28	0.00	0.0647	11.74	516.6	420.88	0.0721	625.5	11.258	22.42	13.72	1.50
	114.25	29.84	70.26	0.00	0.0646	11.73	516.3	420.71	0.0719	625.0	11.251	22.41	13.71	1.50
	115.25	29.86	70.26	0.00	0.0647	11.75	517.0	421.29	0.0721	626.8	11.282	22.48	13.76	1.50
	116.25	29.86	70.26	0.00	0.0647	11.75	516.8	421.15	0.0721	626.5	11.276	22.46	13.75	1.50
	117.25	29.84	70.26	0.00	0.0648	11.75	517.1	421.37	0.0722	627.2	11.290	22.49	13.76	1.50
	118.25	29.86	70.23	0.00	0.0647	11.75	517.2	421.61	0.0721	627.3	11.292	22.50	13.77	1.50
	119.25	29.88	70.26	0.00	0.0648	11.76	517.3	421.58	0.0722	627.5	11.295	22.50	13.77	1.50
	120.25	29.88	70.26	0.00	0.0648	11.77	517.8	421.98	0.0722	628.4	11.312	22.54	13.80	1.50
	121.33	29.86	70.26	0.00	0.0648	11.76	517.6	421.81	0.0723	628.7	11.317	22.54	13.80	1.50
	122.25	29.88	70.28	0.00	0.0648	11.77	518.0	422.01	0.0723	629.6	11.332	22.57	13.83	1.50
	123.25	29.86	70.26	0.00	0.0648	11.77	517.8	421.99	0.0723	630.2	11.344	22.60	13.84	1.50
	124.25	29.88	70.28	0.00	0.0649	11.78	518.3	422.23	0.0725	630.7	11.352	22.61	13.85	1.50
	125.25	29.90	70.26	0.00	0.0648	11.78	518.4	422.51	0.0724	630.7	11.353	22.62	13.85	1.50
	126.25	29.88	70.28	0.00	0.0648	11.78	518.2	422.17	0.0724	630.8	11.354	22.61	13.85	1.50
	127.33	29.88	70.26	0.00	0.0648	11.78	518.2	422.35	0.0725	631.6	11.369	22.65	13.88	1.50
	128.25	29.88	70.28	0.00	0.0648	11.79	518.7	422.57	0.0725	632.2	11.380	22.66	13.89	1.50
	129.33	29.84	70.23	0.00	0.0648	11.79	518.7	422.84	0.0725	632.2	11.379	22.67	13.89	1.50
